elapsed_ms,ax,ay,az
55710,-1652,887,-85
55750,-1651,891,-85
55790,-1681,872,-85
55830,-1661,885,-74
55870,-1661,852,-85
55910,-1676,882,-92
55950,-1697,874,-67
55990,-1668,877,-67
56030,-1675,874,-47
56070,-1656,885,-69
56110,-1667,870,-71
56150,-1674,879,-91
56190,-1654,888,-95
56231,-1680,880,-107
56269,-1663,908,-82
56311,-1667,886,-81
56361,-1676,887,-82
56390,-1680,892,-52
56430,-1681,877,-69
56470,-1669,876,-43
56510,-1678,889,-68
56550,-1677,878,-62
56590,-1666,886,-63
56630,-1660,869,-91
56670,-1659,888,-93
56710,-1670,888,-93
56750,-1663,874,-92
56790,-1631,880,-85
56852,-1676,888,-77
56881,-1679,881,-71
56910,-1649,876,-74
56950,-1682,871,-74
56991,-1671,884,-64
57031,-1671,893,-78
57081,-1670,871,-60
57110,-1667,869,-95
57151,-1672,894,-85
57191,-1669,872,-84
57230,-1678,882,-85
57271,-1667,889,-80
57310,-1668,880,-83
57350,-1661,892,-74
57410,-1653,887,-88
57441,-1666,887,-78
57473,-1652,889,-74
57510,-1656,864,-79
57550,-1675,883,-98
57590,-1667,896,-96
57630,-1675,876,-90
57670,-1648,860,-90
57710,-1670,868,-114
57751,-1673,868,-121
57790,-1671,879,-128
57830,-1685,858,-113
57870,-1675,857,-135
57910,-1704,860,-148
57951,-1679,842,-148
58002,-1693,857,-137
58030,-1684,838,-132
58073,-1680,848,-132
58111,-1691,863,-111
58151,-1712,927,-108
58191,-1738,930,-71
58231,-1731,895,-64
58271,-1693,930,-30
58311,-1671,912,11
58351,-1612,920,79
58391,-1488,885,168
58431,-1396,897,197
58471,-1506,1021,220
58511,-1482,1052,285
58551,-1357,1077,311
58612,-1250,1246,328
58651,-1260,1396,348
58684,-1276,1446,277
58711,-1364,1444,264
58751,-1346,1590,307
58791,-1377,1674,220
58831,-1452,1834,184
58871,-1428,1923,94
58911,-1160,1776,56
58951,-922,1673,17
58992,-636,1770,17
59031,-569,1896,-7
59074,-403,1755,73
59112,-380,1794,135
59152,-354,1885,202
59192,-286,1900,308
59253,-125,1851,360
59287,14,1828,360
59323,136,1838,340
59382,296,1916,214
59391,292,1917,216
59432,372,2175,139
59472,476,2179,230
59512,548,1819,329
59552,618,1610,397
59591,596,1444,406
59632,528,1684,478
59672,630,1828,555
59712,620,1747,619
59752,686,1755,659
59791,763,1902,676
59832,823,1770,665
59871,913,1569,706
59912,922,1609,681
59972,791,1259,558
59991,680,1302,368
60031,540,1480,382
60071,519,1648,287
60111,427,1943,395
60151,449,1277,443
60191,615,1588,538
60231,990,1902,464
60271,944,1797,439
60312,918,2021,522
60352,934,1411,607
60392,731,680,307
60432,796,1738,394
60488,476,1239,333
60533,871,1588,254
60581,1000,1477,225
60593,1105,1181,223
60632,1213,1081,196
60672,1115,1662,115
60712,1211,1643,35
60752,1133,1805,-438
60793,1271,2547,-585
60832,1206,2783,-357
60872,1081,2644,0
60912,1127,2491,367
60953,1063,2193,501
60992,987,2453,520
61032,785,1779,262
61072,1015,2078,181
61134,1272,1687,-258
61175,1394,1631,-471
61200,1366,1430,-660
61232,1322,2159,-621
61272,953,2062,-633
61312,971,1326,-622
61352,919,862,-607
61392,1193,1858,-459
61432,1079,1871,-576
61472,1074,1883,-605
61512,1094,1820,-596
61552,1091,1832,-545
61592,1115,1802,-460
61632,1250,1919,-404
61672,1202,1719,-422
61712,1371,1914,-542
61760,1219,1647,-319
61793,1014,1888,-295
61833,1134,1737,-204
61874,1192,1802,-252
61913,1103,1988,-296
61952,1103,2019,-215
61992,1050,1888,-212
62032,1001,2062,-136
62072,971,1826,-152
62112,1079,1721,-125
62154,1135,1577,-144
62192,1141,1817,-154
62232,1094,1678,-159
62272,1117,1622,-151
62312,1085,1749,-84
62352,1114,1699,-59
62405,1067,1715,18
62453,1081,1697,14
62490,1123,1862,63
62513,1099,1719,16
62553,1033,1889,1
62592,938,1843,-99
62632,866,1946,23
62672,907,1666,98
62713,967,1654,195
62752,1018,2001,229
62792,1109,1563,174
62833,1034,1681,137
62872,1161,1850,126
62913,1210,1558,171
62952,1213,1494,176
62992,1536,1732,108
63033,1400,1658,190
63073,1648,1441,157
63113,1314,1981,8
63155,1091,1794,86
63194,878,1421,192
63233,851,2050,250
63273,626,1867,327
63315,410,1366,444
63371,312,1875,377
63416,536,1552,606
63454,696,2150,573
63493,649,2139,469
63513,705,1811,451
63553,562,1570,512
63593,786,1780,467
63633,854,2377,610
63674,1114,1799,665
63713,1060,2157,770
63753,984,2151,1069
63794,1144,1551,996
63844,1115,660,1510
63873,1628,627,1481
63913,1419,685,1507
63954,1372,462,1331
63993,883,446,901
64036,567,0,575
64094,497,534,834
64124,825,817,999
64153,1048,430,831
64194,1348,856,1363
64255,1322,1163,1766
64274,1402,1045,1818
64313,903,656,1689
64354,1025,222,1635
64393,954,682,1841
64434,1069,310,1708
64473,904,302,1577
64514,1175,379,1637
64553,850,65,1375
64594,887,3,1389
64661,813,-391,1243
64693,928,-533,1191
64737,1199,461,1181
64754,910,-659,962
64793,793,-1102,1285
64833,858,-1201,1150
64873,1224,-1422,1553
64913,1120,-1170,1633
64954,1061,-950,1570
64993,1360,-400,1948
65044,658,-1018,1581
65074,827,-879,1816
65113,874,-659,1622
65153,708,-1560,1203
65195,1187,-1268,1313
65234,898,-1054,1307
65296,1088,-1215,1365
65336,1063,-1294,1374
65354,929,-1060,1351
65394,877,-1088,1308
65435,913,-1362,1240
65485,745,-1219,1373
65514,785,-1033,1097
65554,891,-1146,1018
65594,1054,-958,1166
65634,1291,-1326,1096
65674,1577,-1242,1197
65715,1674,-1067,1092
65754,1737,-1213,845
65795,1779,-1085,864
65845,1579,-944,812
65877,1562,-922,980
65917,1330,-965,876
65956,1315,-1206,945
65994,1133,-1256,1003
66034,1066,-1328,1017
66074,1069,-1242,1102
66114,1047,-1204,1018
66154,1104,-1396,925
66194,1359,-1266,1140
66245,1109,-1294,1069
66274,1049,-1367,1095
66314,1092,-1304,1020
66354,1151,-1299,1006
66394,1208,-1385,877
66434,1152,-1374,894
66496,1098,-1489,820
66522,1103,-1494,812
66573,944,-1413,804
66613,910,-1574,833
66656,893,-1562,859
66675,877,-1661,874
66714,954,-1533,900
66754,822,-1831,904
66794,920,-1846,952
66834,1041,-1732,954
66874,1013,-1755,775
66914,1073,-1470,796
66954,1181,-1659,874
66994,1318,-1402,957
67047,1224,-1070,1216
67075,1179,-1130,1239
67115,1073,-896,1311
67155,979,-793,1473
67195,963,-639,1571
67235,967,-510,1548
67275,913,-708,1488
67315,916,-984,1688
67354,980,-995,1777
67394,1098,-636,1822
67438,926,-240,1594
67477,711,-444,1255
67518,385,-755,1433
67576,448,-635,1770
67595,525,-515,1705
67635,764,-671,1704
67676,989,-760,1664
67715,1001,-544,1641
67755,850,-505,1682
67795,822,-479,1589
67848,844,-296,1718
67875,696,-196,1729
67915,355,-441,1689
67955,437,-147,1683
67996,556,-410,1631
68035,674,-384,1697
68076,626,-74,1823
68117,974,243,1687
68165,1250,32,1607
68206,1212,-104,1569
68260,1101,449,1676
68276,1065,549,1689
68315,802,486,1649
68355,736,235,1423
68396,1250,-12,1365
68435,1176,157,1210
68475,1484,202,1038
68515,1793,-29,899
68555,1916,75,1019
68595,1917,116,977
68648,1913,212,1190
68676,1762,935,1212
68737,1718,1004,1011
68779,1796,979,767
68817,1651,685,819
68835,1695,660,929
68876,1677,461,926
68916,1704,565,921
68955,1716,627,876
68995,1730,754,876
69056,1711,798,869
69075,1682,790,844
69116,1707,728,813
69156,1674,739,817
69196,1688,678,837
69235,1724,684,805
69275,1734,811,835
69315,1725,923,778
69358,1710,828,748
69396,1680,738,769
69438,1680,719,765
69476,1697,808,795
69515,1685,807,784
69555,1706,831,741
69595,1704,793,799
69635,1691,809,790
69675,1711,791,753
69715,1682,812,777
69756,1691,779,735
69797,1678,819,768
69849,1695,811,777
69876,1720,793,760
69916,1697,812,767
69956,1708,817,789
70017,1688,821,731
70070,1720,811,739
70076,1722,827,735
70117,1716,821,770
70157,1708,811,755
70197,1700,831,740
70247,1680,822,731
70276,1725,800,750
70316,1699,825,732
70357,1697,840,746
70397,1714,827,738
70436,1706,815,741
70476,1705,821,728
70516,1703,839,724
70556,1711,810,721
70596,1706,820,715
70651,1701,823,739
70682,1726,836,717
70737,1710,822,708
70758,1722,800,709
70819,1736,883,717
70829,1737,865,724
70876,1713,820,729
70916,1718,814,716
70956,1727,818,719
70996,1709,872,695
71049,1720,838,714
71067,1723,819,685
71116,1752,835,698
71147,1741,837,695
71187,1720,847,681
71227,1726,807,668
71267,1725,863,691
71307,1726,836,676
71356,1733,822,664
71387,1740,862,694
71436,1729,833,712
71479,1725,834,693
71516,1730,869,682
71557,1724,855,660
71606,1727,825,671
71636,1735,800,686
71676,1751,840,683
71716,1729,816,670
71756,1725,846,664
71797,1722,870,648
71857,1741,834,663
71868,1726,836,662
71916,1732,850,655
71957,1740,826,674
71997,1802,870,685
72037,1759,902,625
72076,1714,818,632
72127,1685,821,650
72170,1709,810,664
72197,1745,859,675
72259,1779,851,680
72268,1761,865,672
72317,1741,843,611
72357,1759,838,668
72397,1745,838,652
72437,1759,871,663
72477,1729,828,668
72517,1716,821,674
72557,1758,828,666
72597,1768,881,664
72650,1754,843,654
72668,1724,834,649
72709,1741,846,654
72768,1772,844,659
72788,1740,841,654
72837,1752,791,648
72877,1758,850,667
72917,1760,855,652
72957,1734,850,629
72997,1702,813,625
73050,1726,860,627
73068,1764,867,621
73117,1779,871,622
73157,1854,858,643
73197,1779,782,633
73237,1771,812,608
73277,1722,821,625
73317,1714,809,630
73359,1758,811,610
73389,1771,880,603
73439,1785,856,651
73469,1760,845,641
73517,1754,809,606
73557,1808,844,611
73597,1787,833,621
73637,1736,805,571
73677,1752,815,595
73717,1789,878,609
73757,1818,865,620
73797,1814,856,604
73849,1756,807,595
73868,1741,814,622
73908,1717,820,619
73957,1747,820,621
74013,1747,858,598
74037,1757,849,620
74087,1754,836,636
74108,1767,854,616
74148,1769,811,612
74197,1765,848,598
74263,1758,814,588
74272,1765,838,603
74308,1772,902,593
74348,1755,855,609
74388,1753,787,607
74428,1801,841,615
74468,1820,852,620
74508,1779,828,629
74548,1760,848,591
74588,1767,827,591
74641,1778,853,586
74680,1774,850,626
74719,1770,821,598
74771,1782,807,617
74808,1764,817,615
74828,1768,817,614
74868,1747,814,622
74908,1772,832,609
74948,1776,859,610
74988,1780,843,617
75043,1767,829,614
75068,1743,838,626
75108,1769,841,606
75149,1755,835,597
75189,1761,832,599
75249,1789,823,598
75268,1774,861,598
75309,1782,851,624
75349,1764,824,644
75389,1758,838,608
75428,1774,846,617
75471,1757,847,635
75509,1771,839,613
75548,1768,840,611
75601,1786,854,615
75629,1768,851,629
75668,1757,828,627
75708,1762,837,600
75749,1765,857,615
75788,1753,855,606
75860,1764,842,600
75868,1760,843,606
75908,1762,839,602
75948,1774,848,613
75989,1754,845,587
76028,1763,853,604
76071,1770,857,606
76120,1767,838,606
76151,1765,816,585
76189,1784,827,592
76251,1779,860,600
76269,1779,826,612
76309,1771,837,616
76349,1781,835,601
76389,1770,849,596
76429,1750,840,610
76469,1763,837,590
76509,1774,840,589
76549,1788,852,611
76589,1783,830,598
76642,1786,860,597
76701,1746,794,605
76729,1775,836,584
76749,1783,885,596
76790,1782,853,592
76829,1775,816,610
76869,1791,852,601
76910,1770,843,595
76949,1768,798,606
76989,1754,839,605
77050,1788,829,593
77069,1765,814,587
77109,1774,848,582
77150,1790,856,586
77189,1770,826,604
77229,1796,862,595
77270,1795,826,572
77330,1747,856,608
77373,1743,831,614
77391,1762,816,594
77431,1779,854,608
77471,1794,846,602
77510,1768,848,578
77550,1776,857,595
77590,1789,885,600
77630,1771,894,634
77670,1731,805,604
77710,1772,826,608
77750,1750,851,607
77790,1782,852,605
77850,1744,852,620
77871,1755,855,614
77910,1772,849,620
77972,1759,832,608
78012,1767,849,599
78059,1762,848,594
78091,1782,857,622
78140,1777,837,622
78149,1764,861,633
78190,1791,870,619
78231,1765,806,592
78283,1741,828,602
78309,1745,836,618
78349,1764,859,615
78389,1763,882,630
78429,1776,864,619
78469,1760,835,616
78509,1760,830,630
78549,1765,853,615
78589,1756,837,611
78652,1761,877,598
78693,1745,871,615
78735,1748,846,621
78773,1783,852,628
78789,1780,844,625
78829,1762,898,638
78869,1746,871,606
78909,1777,847,602
78949,1775,856,595
78990,1738,833,605
79050,1740,861,628
79071,1742,869,620
79109,1768,897,645
79150,1732,941,632
79191,1743,896,638
79230,1699,783,665
79270,1732,768,634
79311,1771,900,663
79351,1776,828,665
79390,1722,867,623
79430,1720,1012,616
79482,1712,872,626
79533,1703,815,682
79573,1742,915,625
79612,1711,923,623
79632,1758,825,662
79670,1771,703,695
79710,1739,809,692
79750,1724,1055,662
79790,1616,941,734
79830,1610,776,750
79873,1712,936,711
79910,1716,1005,702
79950,1658,931,689
79990,1611,845,715
80030,1632,850,701
80070,1697,928,696
80113,1663,912,687
80164,1716,954,690
80201,1715,961,698
80255,1681,875,705
80271,1697,898,715
80310,1680,963,710
80350,1623,752,719
80390,1653,743,711
80430,1717,984,653
80470,1731,1046,698
80510,1682,892,737
80550,1673,849,697
80590,1677,947,692
80645,1692,924,692
80670,1653,874,719
80710,1627,797,694
80754,1670,885,704
80794,1731,929,678
80842,1739,907,678
80870,1745,893,702
80910,1716,873,716
80950,1701,927,658
80990,1685,850,713
81045,1680,854,704
81071,1706,899,691
81111,1742,965,647
81151,1689,890,668
81191,1673,857,712
81231,1678,867,620
81271,1683,808,612
81311,1776,885,655
81351,1817,939,660
81393,1840,899,617
81463,1683,861,623
81494,1733,867,592
81514,1714,895,571
81563,1686,859,629
81591,1715,853,608
81631,1717,854,640
81671,1770,864,606
81712,1803,936,623
81752,1747,853,631
81791,1762,904,614
81852,1700,891,621
81871,1713,898,643
81912,1748,886,626
81951,1760,877,645
81992,1722,851,622
82031,1772,972,640
82072,1717,916,617
82137,1715,909,675
82173,1749,915,676
82213,1743,757,669
82284,1673,799,665
82295,1690,788,653
82312,1715,813,651
82351,1676,834,650
82392,1662,789,669
82432,1688,824,641
82471,1790,958,585
82512,1904,976,543
82551,1922,963,597
82592,1816,953,679
82645,1696,972,674
82671,1664,923,546
82711,1487,827,611
82752,2092,771,685
82793,2453,484,582
82855,1806,954,576
82871,1282,797,517
82911,1410,804,657
82951,1581,926,854
82991,1988,918,1081
83053,1967,839,911
83072,1775,618,847
83111,1423,457,802
83152,1264,437,991
83191,1243,702,1095
83233,1358,738,1101
83272,1397,700,1020
83311,1502,736,986
83352,1616,745,1001
83391,1686,740,1059
83444,1620,660,978
83485,1553,722,997
83525,1610,683,925
83584,1722,681,922
83595,1751,667,925
83632,1735,723,884
83672,1689,664,845
83712,1718,703,898
83752,1706,658,953
83792,1782,805,968
83847,1733,802,848
83872,1725,709,818
83912,1567,627,910
83952,1499,544,911
83992,1512,680,853
84064,1865,762,901
84103,1730,697,852
84145,1598,748,869
84152,1589,752,858
84193,1627,818,893
84232,1662,828,948
84279,1646,623,926
84312,1673,685,831
84353,1758,713,757
84393,1706,790,800
84433,1682,768,844
84472,1650,736,814
84512,1701,727,841
84552,1715,864,839
84593,1696,807,796
84647,1704,799,805
84686,1762,887,862
84744,1666,867,912
84752,1627,852,868
84793,1475,611,770
84833,1483,789,848
84873,1596,745,821
84913,1750,621,781
84952,1810,766,775
84993,1785,817,774
85055,1751,840,778
85074,1622,811,795
85112,1580,746,796
85152,1623,822,824
85192,1628,787,824
85232,1703,823,763
85272,1716,858,777
85337,1694,728,784
85385,1722,856,775
85395,1721,877,777
85434,1665,844,722
85486,1721,842,747
85513,1721,828,773
85553,1706,786,778
85593,1701,783,751
85634,1695,792,770
85673,1704,790,789
85713,1702,833,763
85753,1715,843,774
85793,1727,831,779
85856,1692,802,728
85873,1718,837,749
85914,1663,791,760
85979,1681,761,746
85994,1691,791,700
86035,1767,852,720
86114,1773,827,753
86127,1769,819,743
86164,1726,767,716
86194,1661,801,729
86234,1623,794,723
86296,1697,771,760
86313,1733,760,686
86353,1814,750,683
86393,1843,923,709
86434,1706,792,707
86473,1666,718,690
86514,1725,806,698
86553,1732,856,686
86593,1712,831,756
86657,1728,843,715
86704,1737,826,715
86715,1744,830,702
86754,1688,828,713
86794,1716,774,680
86833,1772,791,690
86874,1728,774,717
86913,1728,824,725
86953,1736,855,725
86994,1720,871,726
87055,1736,901,744
87073,1669,741,691
87115,1586,611,693
87154,1680,816,806
87194,1795,886,769
87253,1942,886,796
87273,2032,907,838
87313,1853,618,593
87353,1779,554,810
87394,1695,476,815
87436,1762,671,810
87487,1625,711,783
87527,1500,641,743
87568,1404,718,755
87614,1437,786,863
87634,1600,888,920
87674,1819,856,887
87714,1813,705,798
87754,1670,670,891
87794,1760,861,874
87856,1832,706,831
87874,1806,669,836
87914,1750,593,750
87954,1775,736,765
87994,1733,862,725
88067,1721,677,735
88075,1729,683,759
88125,1689,834,779
88167,1722,876,815
88194,1698,809,797
88259,1648,763,812
88275,1655,750,785
88314,1666,708,774
88354,1743,782,782
88394,1702,844,737
88434,1738,790,749
88474,1821,792,737
88515,1803,800,755
88554,1728,737,732
88594,1666,668,735
88656,1710,795,809
88674,1756,758,788
88709,1778,765,816
88766,1675,845,847
88806,1678,705,848
88834,1699,579,812
88874,1651,696,762
88914,1623,809,828
88954,1646,897,794
88994,1662,935,747
89057,1618,644,832
89075,1699,665,854
89114,1757,916,833
89154,1766,738,724
89194,1785,672,683
89234,1743,716,758
89274,1701,763,808
89314,1605,829,805
89356,1677,806,759
89419,1784,735,783
89468,1816,746,755
89477,1727,799,784
89519,1631,777,780
89555,1618,815,779
89594,1674,802,763
89635,1709,788,778
89676,1749,763,779
89715,1732,791,773
89755,1686,787,779
89795,1709,775,717
89860,1749,802,752
89875,1718,789,790
89915,1708,745,786
89955,1714,791,762
89995,1693,779,774
90036,1699,820,775
90086,1713,777,758
90135,1731,802,751
90186,1712,795,742
90188,1712,786,749
90278,1728,791,765
90288,1716,806,750
90376,1712,801,757
90385,1703,807,748
90395,1710,811,741
90435,1708,774,750
90475,1712,808,776
90515,1728,797,758
90556,1604,666,735
90595,1707,809,759
90660,1660,721,727
90675,1770,907,772
90716,1722,784,742
90755,1668,765,738
90795,1682,937,748
90835,1722,686,730
90905,1728,777,754
90946,1685,783,747
90996,1740,920,763
91005,1713,903,721
91036,1678,659,722
91090,1691,900,690
91115,1782,774,707
91156,1722,807,695
91196,1725,790,722
91236,1803,769,707
91286,1674,708,681
91315,1665,777,700
91356,1879,757,701
91396,1665,813,666
91436,1866,882,742
91475,1848,921,742
91527,1671,426,661
91615,1717,803,734
91619,1719,815,724
91627,1718,829,706
91672,1710,749,764
91716,1747,802,771
91756,1766,803,744
91796,1776,824,777
91836,1768,844,739
91907,1614,725,717
91917,1632,707,734
91956,1632,751,764
91997,1678,775,786
92036,1717,796,807
92076,1714,794,794
92117,1700,816,807
92157,1770,903,807
92224,1708,684,780
92228,1676,746,797
92318,1632,663,830
92327,1653,666,826
92380,1688,825,875
92396,1713,780,857
92436,1708,706,838
92477,1661,708,847
92517,1634,751,861
92557,1648,728,866
92597,1681,744,849
92660,1706,738,861
92668,1724,729,846
92717,1703,743,834
92757,1679,746,847
92797,1661,693,864
92837,1642,691,833
92877,1679,720,827
92969,1697,717,846
92980,1700,762,863
93031,1689,782,857
93041,1675,738,860
93107,1690,740,838
93117,1683,754,841
93156,1702,719,831
93196,1677,736,828
93236,1688,739,854
93276,1707,747,821
93317,1715,758,823
93356,1673,730,822
93396,1707,744,821
93468,1681,754,817
93486,1680,736,829
93516,1703,736,849
93597,1701,717,829
93639,1682,743,822
93659,1671,736,842
93708,1694,722,835
93719,1702,715,815
93757,1688,742,862
93796,1691,746,849
93869,1672,747,811
93876,1672,733,829
93916,1706,715,826
93956,1731,766,831
93996,1685,722,845
94036,1685,736,843
94076,1680,717,821
94116,1674,746,823
94158,1686,754,811
94197,1698,730,833
94299,1695,745,834
94309,1696,762,836
94317,1704,754,825
94368,1699,759,814
94452,1720,769,809
94456,1719,765,820
94469,1706,756,817
94517,1688,736,831
94557,1671,755,844
94597,1654,736,846
94669,1675,783,841
94678,1667,770,861
94717,1691,759,853
94757,1728,787,870
94797,1690,728,838
94837,1647,759,829
94877,1638,722,815
94917,1657,754,832
94957,1685,774,844
94997,1682,797,868
95060,1677,749,830
95108,1672,749,837
95151,1674,785,828
95207,1662,765,828
95217,1672,761,845
95228,1682,753,811
95267,1685,776,835
95307,1671,760,802
95348,1679,762,802
95408,1678,774,806
95428,1704,761,804
95468,1688,786,810
95508,1690,770,816
95547,1675,770,809
95622,1705,777,795
95628,1718,805,782
95677,1698,776,795
95717,1688,742,812
95757,1706,765,789
95797,1698,779,816
95880,1695,782,772
95888,1701,760,804
95917,1694,760,782
95957,1704,782,784
95997,1703,765,792
96037,1689,765,772
96077,1685,763,798
96130,1702,765,770
96181,1701,781,782
96188,1710,768,778
96234,1705,769,784
96281,1697,760,778
96317,1710,769,802
96357,1712,791,785
96397,1721,793,781
96437,1721,777,764
96477,1702,763,766
96508,1695,751,746
96557,1747,772,772
96588,1724,794,773
96660,1718,765,776
96667,1729,765,770
96708,1735,773,751
96771,1708,766,766
96791,1705,753,742
96840,1717,766,774
96877,1728,770,779
96909,1736,776,757
96948,1723,767,770
96988,1713,762,782
97059,1707,779,766
97068,1717,776,761
97108,1718,762,779
97148,1732,783,776
97188,1717,767,769
97228,1724,780,767
97268,1722,791,778
97308,1692,884,776
97348,1724,786,786
97388,1764,683,759
97440,1801,729,852
97490,1786,683,883
97543,1817,851,802
97548,1836,836,819
97602,1707,563,952
97628,1720,853,1059
97668,1717,704,1001
97708,1694,705,1080
97748,1624,988,1243
97788,1647,526,1170
97852,1302,927,1120
97868,1257,744,1171
97908,1256,753,1160
97948,1171,787,1183
97988,1151,699,1465
98028,1125,658,1525
98068,1081,705,1388
98108,1113,614,1283
98161,1065,651,1365
98210,959,417,1140
98251,1093,628,1208
98300,1333,573,1265
98334,1265,676,1305
98382,1247,523,1282
98392,1330,496,1418
98448,1426,666,1777
98468,1485,887,1855
98508,1333,678,1861
98548,1175,941,1789
98588,1071,884,1586
98651,1069,681,1464
98668,1016,536,1413
98708,1032,148,1296
98748,982,308,1280
98788,978,31,1420
98829,725,117,1607
98869,601,181,1738
98909,235,262,1562
98978,39,-472,1641
99021,617,-206,1778
99061,571,148,1697
99073,660,172,1662
99110,615,386,1743
99150,646,538,1802
99189,486,240,2019
99229,315,102,2006
99269,27,20,1894
99310,-207,-254,1710
99349,31,334,1859
99389,146,464,1735
99460,-83,179,1681
99469,-160,-6,1655
99509,-211,-608,1743
99549,112,121,1974
99590,170,582,2067
99710,-62,166,1725
99719,-26,120,1737
99729,29,76,1750
99750,108,207,1824
99790,230,460,1854
99829,264,664,1791
99870,290,313,1751
99920,174,533,1815
99950,192,406,1797
99990,182,422,1792
100029,192,330,1761
100069,236,455,1806
100140,360,500,1775
100185,314,421,1780
100191,321,394,1754
100229,263,446,1817
100269,230,466,1772
100310,296,398,1752
100390,295,511,1797
100400,280,511,1799
100430,241,529,1762
100469,229,466,1776
100510,234,434,1747
100550,245,357,1770
100590,264,489,1793
100657,271,508,1788
100670,252,462,1782
100735,248,432,1773
100782,260,472,1762
100790,268,479,1763
100842,230,430,1775
100870,268,450,1772
100910,232,523,1790
100950,248,468,1784
100990,247,432,1772
101059,278,411,1776
101070,279,413,1772
101110,285,485,1812
101151,246,455,1765
101190,247,390,1784
101230,202,374,1785
101270,237,478,1778
101310,219,455,1771
101380,250,385,1805
101391,254,391,1797
101443,248,415,1792
101493,240,389,1761
101553,252,408,1805
101563,247,412,1794
101590,259,403,1803
101630,233,415,1792
101670,245,398,1793
101710,256,396,1806
101750,238,404,1773
101790,213,338,1774
101861,252,369,1806
101870,251,395,1806
101910,257,423,1798
101950,235,397,1795
101990,263,368,1804
102030,215,342,1790
102111,223,368,1779
102163,222,349,1786
102172,222,346,1789
102211,229,378,1815
102264,239,396,1791
102272,243,378,1787
102316,231,323,1788
102350,223,363,1808
102390,238,391,1789
102430,249,344,1801
102470,245,333,1794
102510,208,388,1810
102550,229,389,1820
102590,223,342,1796
102661,241,382,1813
102671,239,387,1800
102710,246,419,1798
102750,249,392,1781
102790,209,358,1792
102830,225,350,1782
102914,237,433,1815
102922,246,417,1789
102971,231,373,1792
103015,219,387,1785
103064,210,388,1788
103075,212,384,1802
103112,202,355,1804
103152,220,394,1782
103192,228,396,1791
103232,236,402,1802
103272,229,407,1786
103312,221,395,1779
103352,235,379,1790
103392,231,402,1810
103463,228,414,1821
103473,221,423,1815
103512,240,375,1808
103564,240,390,1784
103656,213,398,1797
103661,220,408,1803
103671,227,430,1800
103712,205,380,1806
103752,219,380,1794
103792,208,385,1787
103862,232,405,1793
103872,225,412,1790
103912,236,367,1798
103952,226,401,1813
103992,247,382,1792
104032,245,425,1788
104071,191,377,1810
104112,201,392,1782
104151,196,358,1803
104214,215,396,1792
104266,233,418,1803
104272,228,425,1781
104311,234,383,1779
104351,230,380,1814
104392,223,406,1812
104453,218,399,1768
104473,209,362,1789
104511,210,361,1791
104552,229,427,1803
104592,219,379,1796
104665,216,354,1771
104677,229,359,1797
104737,220,365,1791
104783,245,357,1807
104793,232,348,1781
104831,234,373,1815
104871,223,392,1789
104911,244,361,1767
104951,239,346,1806
104993,233,387,1799
105055,221,355,1799
105072,225,345,1796
105113,227,358,1803
105153,217,370,1795
105193,232,365,1808
105233,240,341,1788
105272,230,377,1805
105334,248,304,1801
105381,247,350,1791
105394,245,399,1820
105445,228,388,1804
105496,218,349,1807
105513,208,351,1799
105552,226,340,1804
105592,234,378,1803
105632,228,436,1787
105672,224,352,1802
105712,229,354,1793
105752,237,392,1793
105792,231,370,1789
105854,242,326,1810
105873,224,360,1794
105912,245,398,1788
105952,220,359,1787
105992,231,426,1806
106065,216,356,1789
106073,220,344,1790
106113,225,362,1793
106224,211,403,1795
106233,227,412,1809
106311,211,393,1790
106318,216,379,1785
106324,199,376,1786
106352,211,357,1805
106392,226,419,1798
106432,232,399,1801
106472,236,418,1793
106512,231,398,1793
106552,225,375,1779
106592,233,390,1775
106664,240,375,1799
106673,239,380,1787
106712,233,409,1791
106752,214,391,1787
106792,236,380,1786
106870,216,413,1792
106873,209,392,1787
106915,241,365,1783
106967,225,366,1786
107013,240,411,1771
107056,230,340,1782
107074,239,340,1749
107113,223,400,1792
107153,240,405,1808
107193,251,390,1802
107233,214,353,1801
107273,251,353,1796
107313,240,375,1800
107353,223,414,1781
107393,216,362,1792
107464,240,389,1760
107473,239,391,1812
107554,252,395,1790
107598,263,328,1765
107603,260,343,1790
107648,236,365,1786
107674,235,378,1800
107714,234,385,1802
107753,232,357,1795
107794,257,374,1813
107858,232,390,1809
107873,233,372,1822
107913,246,356,1790
107954,255,365,1779
107994,232,373,1813
108034,235,395,1767
108074,242,326,1794
108113,259,387,1783
108226,269,394,1798
108236,230,349,1791
108276,254,362,1781
108285,247,375,1806
108344,251,383,1799
108354,246,393,1781
108393,241,407,1774
108433,248,354,1782
108473,266,423,1806
108513,250,397,1801
108553,240,371,1797
108593,241,377,1792
108633,262,390,1802
108674,245,399,1784
108714,250,367,1779
108756,246,380,1778
108793,253,412,1797
108833,253,392,1791
108873,260,387,1774
108914,245,390,1792
108954,257,379,1800
108994,242,407,1793
109061,252,414,1804
109074,251,391,1765
109114,252,355,1772
109154,268,384,1784
109194,271,404,1804
109268,263,412,1801
109317,240,367,1801
109325,249,369,1775
109376,247,399,1805
109393,250,397,1809
109465,233,384,1763
109478,283,369,1805
109514,272,425,1811
109554,277,386,1793
109594,246,371,1783
109634,251,390,1789
109674,254,385,1804
109715,259,389,1776
109754,254,374,1818
109794,253,420,1815
109859,249,364,1782
109876,252,362,1792
109928,262,365,1795
109979,268,415,1794
110028,259,377,1794
110068,267,401,1789
110077,262,411,1791
110128,266,354,1788
110154,259,349,1787
110194,251,366,1793
110278,248,379,1807
110284,251,393,1802
110315,249,385,1804
110354,268,374,1788
110394,253,372,1785
110434,247,362,1787
110474,274,365,1787
110514,278,365,1787
110554,264,376,1805
110594,274,347,1799
110659,280,368,1801
110716,256,359,1790
110726,260,368,1796
110766,257,385,1791
110814,266,384,1801
110834,261,406,1768
110875,250,338,1772
110914,262,379,1803
110956,277,389,1814
110996,267,406,1794
111058,242,355,1801
111075,252,389,1801
111115,275,381,1797
111156,258,411,1798
111195,256,402,1795
111235,256,351,1801
111275,269,402,1774
111348,263,401,1798
111357,270,390,1797
111410,256,377,1776
111457,274,415,1795
111507,257,389,1797
111516,254,376,1790
111555,273,380,1785
111595,280,418,1778
111635,267,385,1796
111675,256,396,1805
111715,256,387,1789
111755,244,393,1793
111795,264,379,1796
111865,257,422,1769
111876,258,391,1790
111915,244,389,1780
111955,262,381,1781
111995,288,414,1797
112057,273,408,1782
112118,266,385,1801
112158,252,389,1778
112167,264,399,1779
112195,250,402,1802
112235,267,417,1773
112307,254,413,1800
112318,266,416,1789
112355,272,390,1787
112395,243,391,1781
112436,253,389,1792
112475,261,417,1802
112516,262,411,1794
112555,250,394,1787
112595,258,416,1786
112669,278,393,1771
112676,258,383,1769
112727,260,392,1790
112782,252,411,1793
112796,272,404,1791
112836,266,371,1794
112876,248,402,1778
112916,243,351,1793
112976,251,415,1791
112996,258,426,1806
113035,285,402,1788
113076,275,387,1810
113107,252,369,1809
113170,255,373,1782
113228,261,429,1790
113237,255,418,1768
113277,253,358,1773
113317,283,385,1800
113356,272,413,1820
113396,266,397,1788
113436,252,313,1808
113491,275,387,1784
113516,248,364,1791
113556,271,419,1808
113596,272,384,1776
113636,252,349,1796
113676,273,369,1796
113716,270,385,1782
113788,261,396,1793
113799,263,391,1786
113847,266,391,1800
113937,275,368,1782
113946,274,360,1792
113998,273,399,1816
114008,276,408,1790
114049,268,388,1785
114076,256,380,1769
114117,257,365,1795
114156,252,386,1789
114196,267,386,1782
114260,271,383,1797
114279,267,371,1773
114316,277,400,1789
114356,260,377,1788
114396,270,381,1771
114436,276,400,1794
114476,269,389,1809
114516,251,391,1781
114590,250,350,1802
114598,243,337,1793
114679,279,432,1811
114685,271,426,1806
114739,287,435,1789
114747,265,417,1794
114789,254,349,1797
114836,264,418,1786
114877,256,408,1804
114917,278,436,1788
114956,262,380,1769
114998,273,390,1799
115062,257,404,1780
115068,252,404,1791
115108,255,407,1776
115148,267,390,1787
115197,258,411,1791
115238,262,407,1804
115278,257,400,1785
115330,263,400,1779
115379,260,408,1798
115418,264,393,1797
115429,256,401,1785
115471,269,405,1760
115507,259,404,1776
115557,275,393,1781
115597,273,426,1781
115638,257,340,1790
115668,275,404,1779
115717,276,408,1794
115757,275,413,1795
115788,269,391,1789
115859,269,368,1786
115868,264,373,1789
115917,253,414,1795
115968,279,388,1774
116009,289,352,1793
116069,283,396,1796
116078,270,386,1814
116117,263,379,1785
116157,263,364,1793
116188,261,363,1792
116260,277,378,1789
116267,263,372,1789
116317,267,386,1796
116358,280,375,1779
116388,285,385,1796
116437,281,365,1779
116478,272,395,1784
116508,264,385,1791
116558,288,400,1775
116608,278,349,1776
116661,282,401,1795
116669,271,399,1803
116712,263,383,1809
116780,273,395,1787
116789,273,387,1815
116828,269,373,1788
116877,274,383,1794
116918,287,427,1795
116948,261,370,1771
116988,272,378,1789
117059,285,402,1800
117069,269,408,1807
117108,263,396,1788
117148,267,376,1783
117188,262,427,1779
117228,276,387,1778
117268,265,416,1792
117331,272,393,1782
117350,288,370,1783
117388,263,404,1788
117429,267,413,1779
117468,268,410,1793
117508,263,393,1779
117549,288,397,1772
117588,287,427,1798
117627,280,412,1777
117701,265,422,1792
117708,267,411,1782
117750,259,397,1788
117812,279,397,1792
117871,271,407,1793
117881,272,406,1782
117920,276,400,1788
117980,264,396,1796
117991,260,403,1784
118029,264,394,1785
118069,266,403,1772
118109,260,405,1808
118149,276,411,1774
118188,269,389,1785
118228,285,418,1811
118280,279,409,1775
118308,274,403,1786
118348,260,419,1778
118388,279,378,1756
118429,272,412,1788
118482,273,434,1812
118531,263,384,1770
118570,263,360,1790
118588,270,379,1781
118628,281,414,1774
118680,259,445,1789
118708,263,394,1771
118748,273,391,1790
118788,276,404,1795
118828,273,399,1808
118868,265,387,1766
118908,274,385,1776
118949,274,404,1804
118989,293,396,1770
119052,276,392,1778
119070,275,391,1794
119120,278,396,1793
119175,276,381,1787
119222,280,388,1795
119229,283,390,1797
119270,294,382,1790
119310,282,355,1797
119350,277,429,1772
119390,273,336,1781
119460,266,406,1801
119469,269,412,1804
119511,276,391,1794
119550,280,391,1793
119590,268,365,1783
119630,280,394,1783
119670,254,398,1826
119709,284,427,1781
119772,269,392,1785
119822,295,413,1777
119863,282,424,1797
119870,276,392,1785
119921,279,380,1789
119949,295,386,1771
119989,277,425,1796
120029,279,419,1790
120070,264,376,1782
120110,279,387,1764
120150,279,397,1786
120190,263,412,1793
120260,281,407,1784
120269,274,402,1768
120310,277,409,1775
120350,278,411,1795
120390,267,435,1761
120462,290,394,1777
120471,277,380,1765
120523,279,439,1794
120583,271,400,1773
120591,271,382,1788
120629,259,387,1792
120670,269,396,1784
120710,269,429,1813
120770,264,377,1795
120789,266,380,1798
120829,286,420,1795
120869,268,411,1775
120910,276,405,1780
120979,259,413,1789
120990,263,416,1798
121030,293,417,1784
121070,272,410,1789
121110,279,395,1787
121161,284,404,1788
121190,273,409,1768
121230,268,404,1773
121270,282,393,1791
121310,292,409,1793
121350,274,401,1789
121390,286,386,1792
121486,285,386,1772
121501,292,398,1787
121511,267,408,1786
121562,276,408,1812
121611,279,409,1786
121654,253,351,1781
121704,296,394,1769
121711,292,395,1778
121750,273,419,1798
121790,260,397,1785
121853,292,385,1776
121870,292,413,1773
121910,282,380,1805
121950,287,377,1779
121990,268,373,1782
122030,287,392,1813
122070,281,388,1788
122110,288,380,1793
122150,279,397,1788
122190,279,361,1781
122253,274,396,1781
122293,273,380,1784
122344,272,403,1798
122385,276,395,1794
122390,270,389,1816
122430,279,379,1785
122470,276,374,1778
122510,275,386,1791
122550,275,397,1801
122590,284,403,1783
122653,270,359,1784
122670,273,380,1783
122710,279,386,1771
122750,286,433,1810
122790,296,413,1766
122830,276,366,1781
122870,269,404,1782
122924,263,406,1810
122981,270,333,1805
123023,297,446,1772
123062,280,447,1771
123074,279,377,1803
123114,281,415,1816
123151,292,440,1775
123191,252,375,1779
123231,271,388,1785
123271,278,425,1788
123311,271,401,1794
123351,266,404,1794
123391,288,416,1781
123454,269,409,1795
123471,278,395,1779
123511,279,396,1789
123551,282,411,1783
123591,277,425,1778
123652,284,419,1788
123696,274,415,1797
123744,261,406,1788
123753,265,424,1794
123791,262,434,1791
123831,273,392,1777
123893,290,412,1770
123911,297,420,1799
123951,280,412,1792
123991,283,408,1783
124031,272,400,1788
124071,279,396,1805
124111,273,399,1801
124151,284,440,1759
124191,272,331,1762
124253,255,425,1786
124333,278,392,1794
124337,280,387,1804
124353,271,377,1801
124392,260,369,1775
124431,289,390,1781
124471,291,429,1809
124511,284,405,1787
124551,277,361,1786
124591,298,387,1784
124653,260,382,1804
124671,266,402,1801
124711,271,364,1786
124751,299,403,1785
124791,287,416,1784
124831,270,381,1778
124871,275,375,1781
124911,282,369,1777
124963,275,382,1772
124991,270,395,1797
125032,274,389,1783
125072,274,384,1806
125113,268,385,1781
125162,273,397,1809
125192,287,372,1785
125232,291,366,1775
125272,273,412,1809
125313,284,410,1799
125382,264,359,1794
125427,280,372,1788
125434,266,384,1789
125484,285,398,1796
125525,282,443,1797
125613,297,417,1801
125622,282,407,1775
125633,284,412,1791
125673,276,399,1796
125712,266,409,1779
125752,262,364,1799
125792,287,419,1798
125865,291,387,1780
125873,292,380,1788
125912,264,410,1781
125952,273,405,1797
125992,269,409,1782
126032,274,416,1780
126072,276,406,1788
126112,270,409,1794
126157,269,417,1785
126206,275,350,1797
126253,293,420,1764
126294,272,364,1800
126313,277,446,1800
126352,280,435,1789
126392,258,375,1791
126432,272,409,1759
126473,263,423,1793
126512,265,439,1793
126552,259,398,1786
126593,264,392,1778
126655,290,423,1779
126673,283,426,1786
126712,258,399,1780
126753,269,421,1787
126798,285,414,1789
126849,281,428,1814
126898,291,432,1774
126913,265,394,1779
126952,271,390,1791
126992,269,408,1791
127054,276,378,1772
127072,280,391,1789
127112,271,414,1789
127153,275,409,1783
127192,267,390,1793
127233,278,386,1788
127273,282,385,1798
127313,282,421,1786
127353,286,402,1800
127393,272,381,1784
127446,275,391,1797
127495,280,400,1797
127546,281,389,1800
127555,270,389,1796
127598,290,378,1777
127634,292,400,1791
127673,270,378,1789
127714,279,379,1791
127753,284,389,1792
127793,282,377,1784
127864,268,345,1769
127874,257,324,1774
127913,276,388,1785
127953,288,409,1792
127993,292,396,1806
128034,268,373,1786
128073,274,354,1791
128146,270,410,1804
128159,272,426,1795
128214,255,349,1788
128276,281,401,1798
128285,284,412,1787
128335,278,366,1811
128353,261,384,1789
128393,278,385,1798
128434,280,401,1802
128473,268,410,1788
128514,277,382,1808
128553,286,392,1784
128594,257,398,1782
128664,273,413,1792
128673,282,409,1800
128713,267,404,1781
128753,260,398,1781
128794,274,437,1787
128834,271,367,1798
128886,280,389,1774
128939,275,432,1805
128987,287,434,1811
128995,262,406,1776
129038,264,372,1779
129131,270,439,1810
129136,268,439,1801
129154,277,435,1790
129193,237,365,1775
129235,287,427,1782
129275,269,417,1775
129325,262,412,1768
129353,273,369,1813
129394,292,447,1770
129435,268,375,1771
129475,275,448,1824
129514,269,411,1792
129554,266,372,1789
129595,272,402,1792
129654,275,411,1775
129675,274,395,1783
129714,274,412,1808
129754,294,401,1791
129794,282,404,1785
129835,280,409,1776
129899,268,400,1784
129915,274,401,1791
129954,267,428,1800
129995,272,400,1796
130045,267,399,1796
130107,288,403,1794
130147,262,379,1790
130157,273,390,1806
130195,265,380,1796
130235,252,383,1794
130290,279,405,1778
130315,279,399,1787
130355,273,405,1783
130395,256,374,1787
130435,272,392,1809
130475,268,449,1779
130515,266,307,1771
130555,283,381,1764
130595,284,425,1807
130657,267,385,1791
130711,267,346,1779
130717,270,356,1783
130769,289,391,1794
130816,275,408,1796
130827,263,385,1795
130875,259,355,1795
130915,278,401,1795
130955,297,360,1803
130995,259,360,1790
131060,285,388,1800
131074,282,395,1800
131115,281,378,1810
131156,280,373,1775
131195,282,376,1798
131236,272,376,1795
131276,265,372,1792
131316,261,391,1802
131372,275,391,1777
131418,281,402,1792
131454,256,341,1779
131468,256,327,1769
131511,279,399,1775
131559,290,409,1810
131595,311,424,1788
131636,270,360,1783
131676,248,361,1804
131716,289,405,1775
131756,278,414,1793
131796,265,397,1780
131865,271,403,1798
131875,285,408,1794
131916,291,394,1816
131956,261,371,1767
131996,282,379,1794
132036,279,388,1786
132107,262,422,1802
132116,275,406,1777
132161,265,401,1771
132217,267,398,1803
132269,276,382,1790
132278,259,411,1777
132316,266,423,1800
132356,266,399,1800
132395,268,426,1769
132435,266,360,1778
132475,288,421,1787
132515,255,404,1794
132555,289,441,1805
132595,269,416,1786
132659,265,416,1790
132675,277,421,1764
132715,283,420,1802
132755,271,453,1766
132825,272,409,1802
132868,293,415,1777
132876,299,405,1782
132917,252,404,1753
132969,264,387,1783
133024,283,410,1777
133058,280,386,1762
133068,275,409,1794
133117,268,400,1783
133157,277,383,1798
133197,278,394,1773
133237,277,404,1768
133277,287,358,1782
133317,299,425,1802
133357,299,402,1790
133397,286,394,1776
133460,270,363,1782
133477,279,372,1797
133507,288,404,1779
133547,276,403,1803
133596,280,373,1782
133657,267,373,1782
133667,270,384,1786
133717,274,378,1791
133747,284,387,1801
133787,284,388,1799
133851,277,368,1783
133901,293,375,1784
133937,273,366,1778
133997,275,345,1806
134007,281,357,1803
134036,279,401,1766
134076,283,307,1768
134116,276,408,1789
134156,308,397,1798
134196,288,401,1779
134257,265,365,1776
134276,267,369,1787
134316,282,398,1787
134356,280,409,1781
134396,286,391,1791
134436,271,346,1778
134498,276,410,1805
134548,264,388,1771
134599,276,380,1793
134606,288,381,1781
134636,267,415,1784
134698,274,402,1777
134716,276,392,1785
134756,269,407,1792
134797,275,406,1788
134836,264,399,1786
134877,285,415,1785
134917,284,411,1783
134957,270,390,1798
134997,283,434,1777
135061,288,409,1765
135067,285,408,1770
135140,287,462,1791
135149,307,469,1785
135210,261,384,1768
135261,279,405,1781
135268,282,394,1785
135317,269,450,1819
135357,271,442,1802
135397,283,401,1772
135467,281,410,1798
135478,276,399,1794
135517,276,415,1759
135557,290,393,1782
135597,290,419,1781
135637,283,427,1774
135677,284,400,1790
135717,289,398,1789
135757,289,412,1767
135812,295,382,1788
135831,292,399,1800
135874,278,420,1773
135919,297,390,1782
135980,284,365,1773
135988,285,342,1777
136038,300,376,1794
136078,319,435,1786
136108,305,421,1790
136158,273,376,1768
136198,277,357,1774
136259,296,412,1805
136268,295,421,1818
136318,272,370,1777
136348,293,347,1771
136388,292,387,1776
136428,294,390,1820
136468,291,383,1788
136540,293,385,1806
136550,297,396,1799
136588,278,389,1781
136683,273,385,1794
136692,298,405,1785
136741,286,396,1791
136799,280,383,1775
136807,266,403,1794
136828,288,441,1785
136868,280,352,1784
136918,309,389,1785
136948,301,409,1787
136988,314,447,1796
137063,248,370,1780
137069,222,361,1769
137108,240,370,1781
137148,273,414,1815
137188,288,428,1787
137229,285,400,1782
137269,293,408,1788
137344,271,401,1787
137349,257,401,1792
137441,255,418,1801
137450,324,391,1784
137469,318,451,1791
137508,302,401,1786
137549,257,357,1762
137588,236,354,1793
137658,260,414,1798
137669,270,429,1801
137708,249,396,1809
137748,251,441,1836
137789,270,379,1781
137870,257,340,1794
137878,232,353,1808
137908,270,418,1811
137949,269,368,1781
138030,296,394,1783
138038,296,384,1795
138068,266,397,1795
138109,191,391,1810
138149,203,290,1772
138189,239,373,1812
138229,238,433,1812
138279,229,342,1798
138309,208,383,1787
138371,190,420,1811
138388,196,363,1796
138432,265,336,1765
138482,264,378,1813
138508,222,420,1818
138548,223,383,1817
138588,291,408,1792
138661,195,381,1764
138669,180,357,1784
138708,176,332,1797
138748,225,390,1811
138789,216,377,1794
138828,231,338,1818
138868,228,312,1792
138908,230,431,1790
138948,213,400,1786
138988,195,358,1788
139042,161,373,1788
139130,196,395,1812
139142,211,359,1800
139190,206,408,1772
139200,189,421,1796
139245,191,416,1797
139270,202,436,1797
139309,187,355,1762
139349,232,409,1802
139389,207,422,1788
139453,183,410,1791
139469,224,418,1802
139510,251,419,1765
139550,205,353,1755
139589,199,322,1764
139629,167,413,1799
139669,150,430,1802
139710,122,408,1775
139749,118,363,1787
139799,160,411,1767
139840,180,404,1788
139901,208,460,1793
139910,213,407,1802
139961,212,370,1768
139990,201,411,1774
140029,209,480,1819
140069,187,408,1771
140109,178,404,1786
140149,163,433,1803
140189,107,433,1771
140251,132,446,1789
140269,170,437,1799
140309,199,443,1800
140349,203,434,1798
140389,181,426,1784
140429,170,429,1771
140469,229,434,1788
140511,233,501,1764
140550,152,412,1777
140643,216,490,1791
140653,193,429,1785
140669,193,418,1785
140750,184,455,1772
140760,212,466,1770
140790,210,483,1782
140829,185,432,1763
140870,181,440,1773
140909,235,456,1775
140949,203,446,1795
140990,202,455,1776
141051,225,410,1774
141070,223,435,1794
141109,179,461,1783
141150,197,442,1788
141189,192,432,1790
141230,197,408,1771
141290,206,419,1777
141344,208,436,1779
141386,201,459,1785
141390,187,455,1771
141430,188,351,1786
141491,200,449,1788
141511,210,457,1804
141550,220,426,1784
141590,194,421,1776
141630,203,389,1772
141670,207,418,1768
141710,191,433,1795
141753,193,424,1788
141792,192,374,1776
141833,211,421,1785
141873,197,425,1810
141914,205,413,1776
141952,195,402,1772
141994,208,428,1786
142044,187,426,1777
142094,209,405,1795
142145,196,406,1788
142152,197,409,1778
142190,205,414,1763
142230,198,424,1787
142270,204,406,1788
142311,198,421,1803
142350,181,417,1776
142395,204,406,1780
142430,200,411,1780
142470,208,450,1783
142510,208,449,1778
142550,206,407,1779
142590,214,423,1783
142630,191,457,1758
142695,209,451,1767
142744,197,409,1788
142751,207,430,1788
142802,199,485,1783
142854,192,427,1769
142870,200,422,1752
142910,181,450,1771
142950,211,461,1801
142990,206,472,1767
143030,214,439,1764
143094,199,439,1788
143120,193,448,1785
143151,194,456,1788
143191,183,451,1783
143231,192,454,1793
143272,185,456,1771
143311,194,469,1800
143352,200,436,1789
143402,224,461,1753
143451,184,433,1804
143501,218,516,1810
143543,189,424,1769
143554,181,408,1763
143592,192,456,1767
143631,200,459,1778
143672,193,505,1801
143711,183,434,1757
143751,184,429,1789
143791,197,474,1776
143832,195,446,1774
143892,217,451,1782
143911,213,447,1781
143951,202,457,1761
143992,179,450,1782
144031,192,431,1790
144102,207,452,1796
144112,191,449,1793
144153,188,438,1774
144192,193,438,1788
144233,197,428,1793
144314,202,444,1788
144323,191,445,1793
144352,206,459,1775
144391,189,371,1774
144432,197,424,1774
144472,199,463,1782
144511,203,441,1797
144551,184,424,1779
144592,199,383,1787
144632,209,435,1783
144692,197,446,1789
144712,192,426,1780
144751,198,405,1786
144814,199,453,1793
144888,183,409,1786
144901,191,422,1786
144911,202,404,1778
144951,194,434,1785
144992,199,450,1793
145031,196,406,1779
145092,198,431,1782
145113,187,420,1784
145151,200,419,1778
145191,198,437,1787
145232,188,430,1796
145273,190,432,1788
145312,201,454,1802
145352,189,398,1773
145392,206,444,1780
145434,189,440,1775
145500,200,457,1801
145513,216,460,1785
145552,179,416,1778
145592,200,435,1771
145632,198,442,1770
145673,191,475,1797
145732,195,421,1770
145753,207,445,1778
145793,197,474,1762
145832,171,459,1785
145872,187,448,1782
145912,198,441,1782
145952,196,447,1782
145992,188,478,1774
146053,186,435,1786
146072,192,469,1789
146112,194,506,1777
146152,192,432,1770
146192,193,442,1757
146232,187,454,1775
146285,188,481,1760
146312,186,433,1755
146352,193,456,1784
146392,200,473,1785
146435,181,468,1789
146475,200,420,1780
146524,192,472,1778
146552,193,472,1779
146592,193,448,1789
146632,202,431,1776
146683,186,460,1781
146712,186,433,1778
146752,190,440,1771
146792,207,434,1767
146832,204,448,1779
146872,196,449,1776
146912,203,424,1781
146952,203,439,1792
146992,180,433,1771
147032,194,432,1785
147074,205,425,1813
147115,191,460,1804
147154,179,365,1756
147203,179,449,1794
147233,211,461,1795
147274,209,435,1802
147313,178,418,1793
147354,210,387,1784
147393,197,429,1777
147433,189,442,1794
147486,197,430,1775
147513,191,382,1768
147553,209,418,1773
147593,195,431,1785
147633,200,411,1785
147674,198,408,1764
147713,210,432,1804
147756,188,443,1779
147801,209,401,1768
147844,200,427,1783
147875,198,428,1782
147935,209,434,1776
147954,201,416,1778
147994,217,440,1785
148033,189,437,1796
148074,196,452,1768
148114,197,385,1783
148154,195,438,1765
148194,185,438,1780
148234,202,483,1799
148287,196,423,1791
148313,188,406,1789
148354,197,449,1769
148394,190,430,1780
148434,196,485,1774
148475,192,425,1757
148536,201,464,1790
148554,191,489,1790
148594,191,453,1787
148634,191,441,1783
148685,196,441,1776
148713,186,482,1780
148753,193,468,1777
148794,203,445,1781
148834,195,462,1792
148874,181,468,1770
148914,187,453,1774
148954,190,458,1807
148994,188,453,1769
149034,192,457,1788
149080,179,449,1781
149138,205,470,1776
149177,182,465,1807
149194,198,470,1804
149234,200,483,1773
149274,189,428,1795
149314,191,452,1777
149354,187,448,1763
149394,182,483,1789
149434,199,449,1755
149497,210,462,1792
149514,202,465,1787
149554,183,433,1792
149594,198,423,1777
149634,210,405,1802
149674,202,485,1769
149708,188,423,1777
149754,208,479,1781
149794,198,450,1758
149834,185,411,1793
149897,194,450,1786
149914,196,449,1790
149954,199,428,1775
149994,178,406,1783
150035,199,432,1796
150075,197,443,1763
150116,184,400,1761
150156,197,397,1788
150196,200,431,1779
150234,191,433,1783
150274,184,418,1783
150314,179,392,1796
150354,190,431,1797
150394,194,429,1784
150435,191,423,1781
150474,196,426,1794
150514,195,426,1783
150554,188,438,1797
150594,207,427,1792
150634,205,428,1783
150685,178,426,1773
150737,194,445,1798
150762,190,479,1754
150820,194,420,1770
150855,200,448,1781
150874,208,442,1794
150914,209,483,1788
150954,193,420,1772
150994,179,425,1773
151034,188,449,1779
151086,186,470,1781
151114,198,451,1778
151156,183,403,1776
151196,202,441,1780
151236,214,470,1795
151276,185,433,1783
151316,202,444,1755
151378,192,468,1780
151419,197,457,1778
151457,187,452,1775
151485,188,446,1763
151516,181,454,1779
151557,196,440,1784
151596,198,476,1778
151636,193,450,1782
151676,189,457,1780
151715,197,471,1769
151755,194,471,1791
151795,206,439,1778
151835,208,463,1761
151887,193,452,1771
151915,196,462,1796
151955,202,490,1785
152016,188,427,1777
152056,177,462,1779
152086,186,482,1785
152115,189,490,1791
152155,187,439,1749
152195,184,441,1776
152235,207,474,1770
152285,182,441,1783
152315,190,464,1769
152355,198,435,1786
152395,189,457,1785
152435,190,444,1774
152475,203,452,1784
152515,192,448,1772
152555,186,425,1778
152619,195,443,1790
152657,197,432,1773
152708,189,435,1790
152718,201,418,1782
152755,200,471,1770
152795,196,365,1775
152835,195,448,1798
152875,200,465,1803
152915,198,436,1773
152955,202,432,1791
152995,168,395,1783
153036,199,419,1780
153087,201,459,1804
153116,185,425,1762
153156,191,390,1776
153196,213,434,1805
153258,189,408,1786
153268,196,401,1791
153339,197,419,1792
153356,205,438,1792
153396,212,424,1795
153436,197,410,1777
153487,198,426,1793
153517,206,433,1786
153556,188,430,1759
153588,209,429,1776
153651,201,437,1782
153676,184,463,1777
153717,180,371,1795
153757,199,418,1792
153796,188,450,1785
153836,203,455,1781
153880,180,430,1792
153918,183,423,1775
153964,200,439,1770
154006,201,467,1808
154036,186,473,1766
154076,193,403,1770
154116,199,449,1790
154156,192,457,1778
154196,187,444,1785
154236,192,442,1772
154287,190,460,1794
154316,182,469,1784
154356,190,451,1773
154396,190,466,1759
154436,197,447,1771
154476,189,462,1771
154508,199,455,1768
154548,181,465,1770
154598,198,455,1791
154629,199,484,1769
154672,186,431,1793
154716,205,439,1781
154756,204,468,1784
154796,198,516,1786
154836,181,429,1808
154877,185,440,1786
154907,184,463,1779
154957,189,477,1793
154997,204,463,1769
155037,205,439,1782
155088,216,468,1782
155117,197,452,1782
155157,206,441,1777
155209,188,452,1786
155250,205,457,1781
155287,203,460,1771
155317,188,457,1765
155357,211,426,1787
155397,194,434,1781
155437,210,441,1789
155489,189,423,1781
155508,206,429,1777
155557,194,461,1800
155597,186,381,1765
155628,196,383,1769
155677,184,471,1797
155717,212,434,1824
155757,189,443,1789
155811,186,392,1787
155899,187,427,1788
155910,197,448,1778
155936,178,408,1774
155947,178,411,1778
155988,192,403,1764
156037,207,434,1778
156077,185,408,1789
156108,205,424,1769
156157,210,428,1797
156197,194,429,1788
156237,189,413,1776
156288,190,420,1784
156317,195,428,1777
156357,200,434,1798
156397,205,438,1769
156437,199,428,1805
156480,191,472,1783
156509,176,391,1769
156548,197,442,1753
156588,209,459,1789
156637,205,470,1785
156681,187,417,1766
156717,186,436,1775
156757,202,446,1779
156788,183,444,1770
156837,197,475,1808
156868,192,415,1773
156908,206,448,1787
156948,198,479,1794
156988,188,447,1792
157028,199,439,1780
157096,184,464,1780
157109,179,476,1782
157150,197,458,1798
157190,205,446,1766
157228,182,462,1795
157268,190,456,1776
157308,198,466,1764
157348,184,475,1785
157398,178,459,1779
157428,183,454,1768
157469,182,437,1766
157507,195,440,1769
157549,191,465,1781
157587,199,508,1785
157628,178,434,1783
157669,178,439,1773
157708,183,485,1775
157749,183,464,1790
157788,175,441,1762
157829,187,442,1775
157879,207,487,1786
157909,188,453,1791
157948,177,447,1781
157989,206,441,1777
158028,183,468,1782
158088,189,451,1779
158130,180,434,1785
158169,189,448,1772
158199,195,434,1800
158239,198,448,1790
158268,196,435,1785
158321,203,440,1762
158349,175,444,1801
158389,197,444,1773
158428,195,395,1788
158469,185,441,1809
158508,212,449,1790
158549,193,435,1788
158588,207,394,1790
158629,202,414,1778
158679,196,437,1799
158709,191,451,1788
158761,183,401,1771
158797,204,417,1773
158834,208,440,1797
158869,184,415,1792
158909,192,413,1769
158949,188,406,1778
158989,202,424,1785
159029,186,422,1781
159080,187,426,1784
159110,198,407,1784
159149,202,421,1796
159190,197,425,1787
159229,183,417,1787
159270,185,450,1788
159309,179,381,1782
159364,205,437,1781
159403,199,456,1804
159441,196,436,1799
159469,183,426,1780
159510,181,418,1759
159549,184,442,1798
159590,194,447,1789
159629,191,471,1771
159670,183,403,1772
159709,197,434,1786
159750,203,460,1779
159789,184,426,1788
159830,206,442,1772
159882,188,456,1781
159909,183,457,1779
159973,200,432,1772
160012,166,440,1777
160052,183,459,1790
160070,197,438,1775
160110,200,458,1784
160150,182,455,1790
160190,202,451,1798
160230,192,464,1771
160283,182,445,1764
160310,207,434,1762
160350,190,469,1795
160390,192,509,1795
160430,178,442,1770
160470,172,453,1774
160510,185,476,1769
160550,196,494,1802
160590,183,472,1766
160632,184,409,1772
160671,189,476,1794
160711,191,470,1778
160750,197,450,1783
160790,197,435,1774
160830,194,460,1783
160870,189,457,1796
160910,192,448,1767
160950,191,434,1777
160990,176,436,1782
161030,201,475,1792
161083,186,440,1768
161110,199,422,1788
161149,194,462,1787
161190,193,388,1772
161252,197,460,1799
161291,204,439,1792
161310,206,439,1771
161350,186,437,1780
161390,187,402,1783
161430,216,423,1782
161500,167,453,1765
161510,159,435,1771
161551,147,383,1808
161590,220,417,1808
161630,267,452,1763
161685,216,449,1761
161714,185,399,1820
161752,178,399,1808
161791,160,399,1759
161830,145,402,1778
161870,147,488,1784
161910,176,441,1782
161950,214,408,1775
161993,248,398,1772
162031,210,479,1772
162070,177,429,1776
162110,218,587,1855
162150,178,462,1777
162190,152,349,1765
162230,107,427,1807
162312,175,564,1834
162323,167,595,1804
162374,154,197,1730
162450,151,504,1839
162460,170,554,1854
162470,188,584,1820
162510,193,433,1786
162550,181,364,1734
162590,171,357,1777
162630,182,507,1793
162684,149,358,1792
162710,144,359,1792
162750,148,344,1756
162790,202,395,1824
162830,251,507,1853
162870,244,338,1732
162912,250,435,1808
162972,221,375,1805
162992,257,426,1813
163034,246,437,1771
163074,261,427,1761
163114,269,474,1795
163152,225,441,1781
163192,229,479,1815
163232,211,359,1792
163272,249,460,1761
163312,272,511,1773
163352,302,487,1779
163392,264,401,1804
163432,251,505,1766
163485,256,487,1760
163511,267,461,1801
163551,261,437,1764
163603,258,518,1779
163654,250,415,1769
163685,262,494,1757
163724,239,403,1769
163751,274,439,1784
163791,277,501,1775
163831,244,455,1786
163885,249,469,1765
163911,237,491,1779
163951,241,493,1776
163991,239,396,1766
164031,267,498,1780
164071,255,412,1788
164111,242,465,1769
164151,262,450,1773
164191,248,468,1786
164231,247,485,1754
164295,260,524,1779
164326,265,437,1777
164376,247,495,1770
164391,244,488,1765
164431,220,396,1764
164471,255,474,1785
164511,274,483,1758
164551,255,387,1775
164591,258,474,1785
164631,258,464,1785
164684,259,478,1767
164711,230,474,1783
164752,256,485,1790
164792,269,495,1761
164832,238,451,1775
164872,258,457,1760
164943,282,504,1742
164954,299,513,1740
165005,173,506,1845
165042,278,351,1717
165085,287,439,1786
165112,205,476,1804
165152,190,373,1811
165192,185,350,1810
165232,216,432,1802
165272,175,386,1776
165312,214,415,1781
165352,110,472,1771
165392,290,235,1764
165432,239,438,1871
165484,201,344,1764
165512,246,258,1737
165552,232,184,1791
165593,226,403,1805
165633,243,365,1763
165680,283,328,1787
165712,302,387,1805
165752,249,446,1794
165793,246,339,1797
165833,242,307,1792
165885,271,493,1820
165936,280,319,1783
165965,252,281,1761
166003,234,396,1803
166035,279,451,1808
166072,277,392,1772
166112,244,373,1796
166152,262,379,1798
166192,247,412,1813
166232,244,361,1792
166286,243,404,1815
166312,254,393,1779
166352,235,354,1776
166392,258,389,1796
166432,269,398,1811
166473,281,410,1805
166535,255,380,1780
166575,255,343,1769
166614,249,368,1799
166633,252,418,1783
166673,245,399,1786
166714,231,367,1791
166753,262,392,1814
166793,250,381,1801
166833,232,352,1797
166873,222,403,1825
166913,256,402,1838
166953,245,511,1879
166993,149,394,1883
167033,34,58,1934
167087,80,331,2064
167113,31,5,1878
167155,366,68,1951
167194,417,300,1874
167234,293,209,1648
167273,664,33,1545
167314,786,297,1471
167354,796,480,1436
167394,833,426,1484
167434,918,664,1572
167488,1107,571,1541
167513,1201,579,1511
167553,1083,720,1389
167593,1042,757,1287
167634,1143,787,1187
167673,1289,949,1244
167713,1203,651,1251
167766,1305,681,1289
167815,1445,738,1317
167856,1354,830,1183
167895,1215,942,1136
167914,1251,988,1126
167954,1317,951,1138
167994,1238,1119,1090
168034,1167,1196,1027
168074,1065,1127,1016
168113,1135,1224,1034
168154,1247,1235,1127
168194,1301,1061,1130
168233,1283,1172,1144
168289,1237,1086,975
168313,1356,1025,1032
168353,1517,1185,1004
168406,1477,1380,924
168445,1478,1025,1176
168496,1533,1604,1152
168538,963,1567,1153
168554,946,1438,1141
168594,929,1796,1206
168634,765,1494,1113
168696,686,1473,1200
168714,828,1358,1184
168754,547,1094,1069
168794,498,1179,1038
168834,272,1170,950
168874,74,982,953
168914,190,1424,1039
168954,272,1050,962
168995,287,1344,979
169034,158,1491,933
169078,243,1445,928
169117,216,1704,993
169167,180,1511,847
169215,184,1622,1013
169255,379,1353,991
169275,443,1443,1071
169314,327,1693,1086
169355,241,1584,967
169406,215,1414,989
169443,316,1432,982
169474,347,1634,993
169516,276,1703,1013
169554,310,1492,925
169594,210,1593,955
169667,393,1739,789
169675,422,1778,755
169715,368,1960,658
169754,446,1997,551
169794,480,1881,430
169834,544,1853,459
169875,596,1983,202
169910,261,1903,278
169954,374,1748,287
169994,263,1862,360
170034,109,1783,255
170074,-168,1845,327
170115,-283,1931,335
170166,-314,1843,191
170249,-391,2116,69
170254,-382,2086,89
170308,-302,1815,127
170314,-240,1807,92
170355,-137,1980,-16
170395,53,2307,-9
170436,-201,2188,-197
170475,-210,1979,-174
170515,-263,2109,-93
170556,-442,1908,-232
170595,-531,2005,-43
170635,-518,1756,-25
170697,-492,1709,-77
170715,-498,1701,-117
170786,-455,1630,-161
170796,-489,1581,-138
170836,-570,1931,-77
170879,-872,2070,-29
170915,-1004,2103,177
170955,-905,1550,99
170995,-751,1596,-39
171035,-799,1605,-168
171097,-901,2065,-143
171116,-764,2069,-344
171156,-605,2015,-168
171195,-797,1977,-187
171235,-959,1761,-78
171275,-967,1692,16
171315,-956,1560,21
171355,-971,1535,-12
171395,-909,1693,-94
171430,-894,1726,-161
171486,-887,1852,-95
171532,-859,1737,-148
171579,-687,1445,-219
171596,-637,1383,-241
171635,-876,2563,81
171676,-1090,1288,-19
171715,-970,1218,9
171755,-962,1875,138
171795,-1003,1326,-36
171835,-898,1715,-126
171898,-847,1869,-113
171915,-866,1794,-128
171956,-903,1671,-48
171995,-926,1689,-51
172035,-922,1726,10
172076,-933,1632,-23
172137,-950,1685,-65
172175,-925,1630,-51
172219,-939,1670,-50
172256,-942,1673,-91
172290,-914,1726,-67
172354,-899,1706,-43
172367,-895,1696,-41
172396,-910,1686,-47
172436,-915,1701,-40
172476,-893,1684,-70
172516,-879,1734,-70
172557,-886,1728,-64
172596,-898,1707,-62
172637,-882,1652,-97
172698,-868,1771,-63
172716,-851,1707,-26
172756,-881,1759,11
172796,-904,1668,-28
172836,-900,1696,-42
172930,-892,1683,-78
172938,-914,1710,-77
172976,-881,1718,-67
172996,-882,1728,-70
173036,-859,1758,-58
173076,-849,1782,-100
173110,-829,1773,-78
173156,-869,1783,-23
173197,-923,1671,81
173237,-948,1622,155
173276,-930,1614,229
173316,-921,1561,342
173356,-834,1621,413
173396,-810,1615,457
173436,-819,1567,478
173488,-774,1629,408
173533,-743,1679,360
173556,-736,1701,322
173597,-747,1747,325
173637,-754,1728,306
173677,-701,1717,289
173726,-668,1811,327
173747,-658,1802,341
173798,-594,1793,328
173827,-622,1854,348
173867,-600,1838,322
173928,-605,1817,347
173970,-626,1773,350
174020,-662,1745,355
174036,-681,1792,363
174076,-657,1759,414
174116,-642,1690,509
174156,-727,1621,605
174197,-804,1483,661
174237,-834,1426,719
174299,-802,1471,715
174317,-803,1475,678
174358,-799,1491,690
174397,-798,1504,700
174428,-817,1492,696
174477,-876,1437,645
174518,-830,1494,632
174558,-736,1562,632
174592,-750,1569,700
174649,-830,1462,707
174692,-844,1490,707
174709,-866,1471,684
174757,-863,1489,725
174797,-872,1463,744
174837,-895,1393,724
174878,-936,1436,721
174917,-929,1416,697
174957,-880,1467,740
174998,-862,1419,746
175028,-871,1404,751
175092,-929,1399,759
175108,-908,1406,775
175148,-915,1391,748
175188,-882,1435,745
175230,-886,1439,772
175279,-891,1416,758
175308,-905,1415,757
175357,-905,1407,755
175397,-895,1397,751
175438,-892,1443,748
175499,-892,1411,763
175508,-888,1402,759
175557,-897,1421,731
175598,-907,1420,738
175628,-897,1420,755
175677,-896,1396,749
175708,-912,1427,774
175748,-900,1392,756
175811,-918,1415,786
175851,-917,1371,754
175869,-906,1383,750
175925,-910,1409,731
175949,-917,1443,742
175989,-915,1418,752
176031,-920,1384,776
176067,-919,1399,748
176118,-912,1410,749
176148,-921,1390,750
176188,-926,1389,736
176228,-913,1422,739
176289,-924,1399,744
176309,-928,1388,769
176348,-912,1417,749
176389,-920,1396,759
176428,-914,1394,776
176468,-915,1395,771
176509,-924,1396,735
176569,-907,1401,751
176644,-919,1396,744
176652,-937,1400,716
176668,-935,1393,745
176710,-920,1424,744
176748,-934,1383,748
176788,-949,1418,748
176828,-969,1390,726
176868,-955,1365,712
176908,-958,1384,727
176949,-937,1383,754
176989,-952,1373,734
177028,-963,1370,754
177092,-949,1370,743
177109,-942,1384,747
177148,-937,1387,747
177189,-947,1405,733
177229,-938,1399,731
177268,-914,1387,748
177308,-958,1393,747
177349,-944,1396,750
177388,-931,1405,767
177429,-952,1369,761
177481,-941,1390,750
177509,-946,1374,752
177548,-944,1382,746
177589,-939,1390,755
177629,-930,1389,746
177678,-944,1381,741
177708,-934,1378,750
177748,-934,1400,748
177789,-949,1371,747
177828,-938,1384,745
177892,-946,1387,757
177930,-937,1380,738
177970,-943,1375,766
178010,-961,1386,744
178030,-946,1395,751
178069,-945,1366,765
178108,-939,1377,768
178149,-951,1379,733
178190,-949,1384,742
178229,-957,1365,755
178281,-945,1396,760
178309,-948,1381,746
178350,-940,1374,736
178389,-955,1373,737
178430,-950,1379,733
178469,-958,1378,760
178510,-942,1377,737
178559,-941,1383,750
178601,-946,1372,747
178629,-937,1375,743
178688,-938,1381,736
178710,-956,1359,734
178750,-932,1365,761
178790,-948,1375,759
178830,-968,1374,743
178870,-957,1389,744
178910,-946,1361,760
178950,-947,1351,729
178989,-956,1395,739
179029,-952,1378,743
179080,-952,1376,759
179143,-944,1391,734
179152,-931,1394,759
179193,-951,1373,750
179242,-956,1367,775
179282,-940,1378,736
179309,-941,1381,733
179349,-967,1376,751
179389,-949,1375,749
179429,-975,1355,749
179489,-945,1382,769
179509,-935,1384,764
179550,-949,1362,750
179590,-962,1401,736
179629,-950,1371,755
179669,-937,1361,761
179709,-942,1390,749
179749,-944,1390,753
179811,-946,1366,762
179851,-951,1363,751
179881,-951,1386,747
179923,-961,1364,749
179964,-938,1369,749
180000,-948,1369,740
180030,-945,1380,741
180070,-938,1372,778
180111,-957,1356,752
180150,-965,1399,781
180190,-959,1360,767
180230,-939,1349,751
180282,-959,1355,709
180310,-979,1386,730
180350,-938,1372,765
180390,-928,1390,756
180430,-966,1377,743
180470,-951,1384,763
180519,-947,1375,748
180547,-949,1389,760
180591,-928,1401,753
180630,-953,1368,758
180682,-967,1374,754
180710,-978,1352,736
180751,-946,1353,724
180790,-931,1378,759
180830,-920,1412,766
180870,-936,1378,768
180910,-965,1370,745
180950,-959,1363,736
180990,-942,1369,755
181030,-959,1369,770
181082,-933,1389,774
181110,-950,1379,779
181152,-947,1353,748
181193,-967,1370,760
181231,-951,1374,764
181272,-928,1378,769
181311,-954,1348,756
181380,-951,1391,780
181391,-949,1355,793
181431,-934,1336,766
181471,-949,1425,712
181510,-946,1383,774
181550,-928,1382,724
181592,-943,1404,748
181630,-939,1401,740
181670,-927,1411,758
181710,-921,1374,773
181750,-906,1420,720
181790,-978,1341,739
181830,-941,1399,761
181884,-928,1416,713
181910,-937,1399,735
181950,-934,1384,757
181990,-938,1396,770
182030,-916,1395,705
182092,-937,1394,737
182125,-924,1392,783
182173,-910,1401,733
182192,-935,1403,753
182231,-931,1370,744
182271,-921,1394,742
182314,-911,1405,724
182352,-928,1410,735
182391,-927,1388,742
182431,-936,1389,764
182471,-939,1418,739
182511,-913,1409,758
182551,-942,1393,745
182591,-934,1378,729
182631,-922,1404,760
182683,-927,1375,768
182714,-925,1388,752
182754,-935,1378,758
182822,-932,1393,754
182833,-934,1395,772
182871,-953,1379,759
182911,-943,1384,757
182951,-936,1393,766
182991,-944,1372,746
183031,-937,1386,773
183082,-934,1390,746
183111,-930,1382,733
183151,-950,1384,727
183191,-949,1392,760
183231,-933,1395,775
183271,-932,1388,739
183311,-933,1385,765
183351,-939,1390,760
183393,-931,1377,761
183453,-936,1395,761
183482,-932,1387,745
183511,-929,1383,742
183551,-942,1373,737
183591,-926,1372,763
183631,-936,1381,742
183671,-935,1375,776
183711,-943,1382,743
183751,-936,1384,763
183791,-928,1382,780
183831,-924,1388,755
183882,-940,1380,736
183912,-939,1382,764
183952,-943,1387,764
183992,-928,1376,754
184053,-933,1376,766
184072,-947,1371,748
184112,-929,1382,756
184152,-931,1394,763
184192,-939,1385,771
184232,-924,1370,762
184282,-935,1389,750
184312,-934,1382,749
184352,-936,1363,766
184392,-942,1379,754
184432,-931,1405,768
184472,-936,1383,771
184512,-936,1381,755
184552,-935,1377,774
184594,-926,1386,752
184633,-942,1399,758
184693,-937,1379,762
184713,-936,1387,763
184752,-946,1405,790
184792,-901,1343,801
184833,-929,1480,812
184872,-954,1372,829
184912,-892,1268,694
184952,-816,1476,823
184992,-888,1491,823
185032,-844,1430,798
185084,-849,1398,806
185112,-886,1370,870
185152,-848,1313,838
185193,-852,1312,867
185234,-883,1223,849
185274,-871,1330,878
185313,-834,1334,803
185352,-865,1469,779
185393,-857,1372,817
185432,-881,1341,825
185476,-841,1458,871
185513,-886,1207,893
185552,-902,1361,961
185592,-936,1256,861
185632,-955,1250,820
185694,-939,1350,867
185713,-922,1426,912
185752,-952,1249,869
185792,-943,1276,856
185832,-952,1333,868
185896,-955,1338,820
185913,-958,1317,809
185953,-939,1336,860
185993,-947,1321,834
186033,-932,1347,825
186073,-919,1374,799
186113,-958,1362,780
186153,-940,1343,803
186193,-948,1348,789
186245,-920,1358,791
186316,-928,1360,781
186325,-932,1370,770
186354,-925,1356,797
186395,-931,1313,821
186434,-936,1329,793
186473,-969,1445,813
186513,-917,1366,812
186553,-870,1351,825
186593,-933,1357,778
186633,-961,1394,679
186685,-905,1412,686
186713,-879,1457,722
186753,-932,1405,753
186793,-848,1344,774
186833,-763,1469,684
186874,-881,1606,706
186913,-940,1349,686
186955,-865,1455,759
187007,-748,1442,780
187044,-708,1510,778
187094,-669,1642,822
187113,-644,1625,809
187154,-620,1628,731
187193,-620,1701,713
187234,-665,1645,660
187273,-716,1547,630
187314,-745,1479,658
187353,-718,1599,633
187394,-673,1695,654
187433,-692,1649,656
187485,-753,1530,727
187513,-840,1326,810
187568,-693,1489,717
187604,-646,1689,724
187635,-715,1563,702
187677,-805,1626,669
187715,-859,1471,639
187754,-891,1483,583
187795,-866,1461,632
187834,-888,1527,639
187885,-877,1565,632
187915,-910,1479,616
187955,-911,1412,599
187995,-870,1541,587
188034,-867,1511,596
188075,-870,1507,592
188114,-876,1530,602
188155,-896,1505,600
188205,-862,1541,568
188237,-857,1532,575
188279,-869,1548,538
188315,-881,1571,541
188355,-883,1546,515
188394,-906,1505,511
188435,-877,1587,459
188474,-853,1585,488
188515,-837,1624,458
188554,-832,1568,519
188595,-825,1608,527
188634,-844,1568,567
188686,-847,1534,545
188714,-811,1594,558
188754,-746,1678,575
188795,-721,1614,601
188846,-724,1617,579
188878,-684,1653,617
188920,-683,1599,624
188955,-725,1593,616
188995,-740,1626,682
189035,-703,1495,789
189094,-662,1456,842
189114,-665,1357,825
189155,-584,1346,774
189195,-658,1416,788
189235,-628,1492,774
189275,-556,1565,730
189315,-582,1639,712
189355,-550,1743,661
189395,-552,1745,653
189454,-490,1788,640
189495,-468,1732,620
189515,-466,1633,661
189555,-398,1707,585
189595,-449,1708,662
189636,-361,1741,572
189685,-309,1808,528
189715,-303,1885,538
189755,-314,1927,519
189795,-389,1776,533
189836,-347,1845,517
189886,-336,1857,527
189916,-337,1778,606
189957,-382,1735,655
189997,-391,1577,702
190035,-411,1690,723
190076,-421,1526,736
190116,-401,1628,802
190156,-394,1643,784
190196,-398,1656,729
190236,-425,1725,717
190287,-415,1654,729
190316,-423,1619,734
190356,-378,1663,705
190396,-322,1747,680
190436,-329,1767,658
190476,-327,1749,674
190530,-338,1606,751
190567,-364,1814,628
190599,-329,1858,621
190636,-323,1759,590
190707,-340,1719,586
190715,-348,1762,596
190756,-304,1849,555
190796,-310,1825,525
190835,-310,1820,589
190875,-318,1767,598
190915,-333,1744,605
190955,-370,1691,580
190995,-326,1832,537
191035,-308,1872,510
191087,-332,1782,543
191135,-314,1775,592
191169,-307,1739,587
191197,-306,1814,575
191235,-307,1785,577
191275,-326,1800,592
191315,-367,1733,579
191355,-355,1791,595
191395,-362,1725,626
191435,-355,1688,655
191489,-319,1745,651
191517,-314,1776,656
191557,-367,1749,630
191597,-402,1710,676
191637,-375,1756,656
191677,-439,1667,695
191737,-421,1648,709
191776,-338,1701,761
191787,-329,1711,778
191829,-363,1669,714
191876,-428,1725,726
191910,-418,1831,758
191956,-409,1783,818
191996,-454,1699,902
192036,-510,1182,971
192076,-478,1344,1061
192116,-496,1313,1048
192156,-437,1385,1055
192196,-449,1377,1031
192236,-513,1451,1039
192289,-624,1379,1009
192316,-661,1354,1065
192371,-687,1256,1110
192419,-717,1244,1150
192461,-668,1229,1191
192468,-650,1226,1224
192516,-655,1176,1173
192556,-738,1163,1107
192596,-730,1280,1119
192636,-665,1259,1101
192698,-779,1284,1100
192716,-747,1296,1099
192756,-775,1246,1124
192796,-786,1249,1069
192836,-770,1165,1074
192876,-702,1230,1099
192916,-644,1317,1115
192956,-657,1270,1097
193018,-638,1212,1065
193062,-638,1221,1095
193073,-653,1246,1117
193113,-662,1222,1101
193168,-585,1309,1044
193197,-608,1386,1090
193236,-681,1411,1183
193267,-656,1301,1118
193316,-624,1156,1120
193347,-700,1313,1104
193399,-757,1334,1030
193428,-773,1418,1051
193476,-738,1339,979
193516,-719,1360,1043
193547,-753,1280,1009
193599,-760,1320,1021
193637,-754,1281,1073
193677,-765,1227,1094
193717,-796,1238,1082
193757,-767,1265,1073
193797,-770,1264,1053
193837,-768,1224,1065
193890,-758,1267,1086
193917,-734,1254,1083
193957,-810,1181,1059
193997,-786,1240,1052
194037,-761,1278,1079
194101,-754,1239,1096
194107,-754,1256,1093
194160,-791,1262,1083
194197,-781,1239,1044
194228,-806,1196,1028
194269,-793,1259,1063
194320,-773,1232,1064
194348,-756,1237,1100
194388,-740,1236,1114
194428,-780,1241,1052
194478,-764,1321,1050
194518,-742,1305,1039
194558,-728,1307,1052
194588,-709,1290,1070
194638,-749,1262,1047
194691,-769,1243,1065
194718,-743,1277,1050
194748,-746,1287,1062
194800,-760,1275,1069
194873,-765,1254,1057
194878,-738,1258,1067
194909,-742,1269,1066
194958,-737,1286,1066
194988,-742,1269,1061
195028,-732,1276,1079
195092,-739,1250,1051
195109,-741,1271,1065
195148,-727,1273,1074
195188,-755,1253,1075
195228,-762,1270,1065
195269,-743,1245,1079
195308,-757,1251,1106
195349,-750,1264,1092
195389,-767,1253,1061
195448,-736,1275,1059
195490,-734,1271,1056
195510,-746,1265,1054
195570,-760,1272,1085
195602,-740,1267,1094
195628,-752,1260,1055
195669,-780,1250,1063
195709,-730,1250,1078
195749,-745,1269,1061
195788,-718,1316,1096
195828,-756,1221,1109
195883,-758,1255,1073
195909,-737,1285,1059
195949,-717,1311,1066
195989,-713,1273,1079
196029,-712,1253,1096
196068,-737,1283,1065
196139,-733,1286,1046
196172,-716,1279,1065
196211,-725,1259,1073
196230,-741,1250,1080
196269,-732,1269,1085
196309,-719,1282,1076
196349,-745,1276,1050
196399,-726,1271,1073
196429,-738,1268,1076
196468,-735,1275,1057
196510,-719,1292,1072
196550,-748,1288,1081
196589,-738,1260,1071
196628,-744,1235,1053
196668,-721,1291,1071
196708,-719,1291,1090
196748,-749,1258,1062
196790,-748,1279,1050
196829,-742,1273,1065
196868,-752,1269,1072
196908,-731,1276,1076
196949,-722,1276,1072
196989,-730,1272,1056
197028,-745,1287,1069
197082,-751,1256,1072
197134,-744,1267,1091
197169,-764,1259,1063
197210,-734,1270,1072
197259,-733,1253,1055
197269,-730,1275,1060
197310,-738,1288,1070
197350,-771,1265,1063
197390,-724,1276,1078
197429,-738,1279,1063
197482,-736,1277,1060
197509,-750,1260,1060
197549,-753,1250,1056
197589,-745,1288,1075
197629,-737,1267,1069
197669,-721,1261,1071
197709,-722,1256,1058
197771,-736,1297,1052
197810,-730,1283,1056
197850,-753,1251,1063
197870,-748,1274,1095
197911,-742,1263,1081
197949,-744,1241,1059
197990,-726,1279,1082
198029,-746,1269,1076
198069,-736,1267,1061
198109,-730,1284,1059
198149,-733,1283,1077
198190,-742,1268,1051
198229,-731,1257,1099
198282,-737,1264,1094
198309,-725,1270,1092
198349,-744,1276,1082
198422,-732,1255,1060
198453,-721,1289,1081
198469,-721,1306,1072
198509,-732,1264,1061
198549,-741,1296,1072
198589,-732,1254,1062
198629,-744,1272,1058
198681,-745,1282,1066
198710,-729,1296,1066
198749,-722,1290,1056
198790,-726,1293,1062
198830,-745,1277,1068
198870,-732,1256,1096
198910,-746,1263,1092
198950,-742,1272,1078
198992,-747,1261,1051
199032,-722,1264,1070
199073,-728,1273,1083
199115,-729,1280,1051
199150,-718,1292,1063
199190,-722,1279,1073
199230,-723,1273,1074
199270,-735,1262,1074
199310,-740,1278,1070
199350,-755,1241,1054
199390,-738,1271,1064
199430,-730,1277,1057
199485,-705,1278,1060
199510,-718,1291,1086
199550,-739,1272,1077
199590,-746,1272,1074
199652,-731,1274,1085
199692,-754,1263,1066
199712,-724,1254,1063
199761,-695,1300,1092
199790,-696,1288,1083
199830,-732,1260,1069
199893,-713,1299,1054
199912,-720,1306,1061
199951,-758,1278,1128
199990,-743,1193,1097
200030,-727,1222,1054
200071,-689,1355,1063
200110,-708,1276,1073
200150,-709,1266,1071
200190,-724,1286,1071
200230,-714,1292,1049
200284,-715,1284,1063
200322,-729,1284,1072
200350,-729,1273,1061
200390,-742,1259,1074
200430,-720,1284,1080
200470,-730,1275,1093
200520,-696,1280,1081
200551,-729,1269,1067
200591,-726,1290,1056
200631,-712,1288,1066
200671,-729,1257,1078
200721,-709,1300,1097
200793,-724,1261,1066
200803,-735,1271,1086
200842,-720,1279,1062
200873,-719,1272,1085
200912,-725,1264,1092
200951,-722,1264,1090
200991,-722,1287,1075
201031,-703,1284,1085
201072,-710,1273,1080
201113,-701,1261,1083
201151,-711,1286,1088
201191,-754,1263,1062
201231,-725,1244,1075
201272,-726,1259,1082
201311,-728,1296,1066
201352,-701,1295,1078
201415,-725,1282,1081
201432,-725,1270,1054
201503,-708,1265,1086
201512,-727,1264,1084
201553,-718,1273,1063
201591,-729,1287,1089
201631,-722,1254,1101
201672,-713,1283,1086
201711,-731,1278,1062
201752,-748,1257,1054
201792,-705,1271,1074
201831,-710,1287,1092
201893,-729,1294,1079
201912,-713,1277,1062
201951,-705,1286,1095
201991,-713,1288,1073
202032,-738,1291,1071
202084,-747,1260,1039
202136,-759,1236,1069
202177,-701,1265,1098
202191,-677,1287,1109
202232,-728,1258,1098
202271,-734,1265,1082
202316,-728,1284,1085
202351,-736,1273,1057
202392,-729,1256,1078
202431,-719,1290,1090
202473,-703,1269,1101
202512,-726,1277,1096
202552,-715,1292,1062
202592,-719,1251,1065
202632,-708,1278,1086
202693,-724,1336,1063
202727,-736,1250,1073
202775,-734,1232,1104
202813,-715,1296,1082
202866,-707,1307,1060
202873,-697,1312,1062
202912,-718,1265,1078
202952,-720,1251,1079
202992,-727,1276,1080
203032,-724,1264,1092
203087,-733,1281,1079
203112,-735,1269,1073
203152,-737,1261,1077
203192,-734,1263,1109
203232,-729,1267,1073
203272,-728,1271,1069
203312,-737,1266,1059
203352,-740,1265,1095
203404,-743,1243,1079
203443,-722,1295,1082
203494,-736,1263,1073
203525,-728,1275,1063
203554,-747,1273,1079
203592,-733,1254,1082
203632,-737,1250,1083
203672,-730,1272,1071
203712,-718,1287,1087
203752,-729,1258,1073
203793,-729,1270,1065
203832,-726,1256,1074
203894,-733,1267,1086
203913,-732,1259,1081
203952,-730,1266,1076
203992,-714,1287,1097
204032,-731,1253,1052
204085,-731,1257,1082
204124,-734,1276,1080
204172,-730,1264,1089
204193,-723,1247,1083
204234,-725,1263,1072
204273,-702,1300,1092
204322,-721,1259,1096
204364,-695,1301,1117
204392,-730,1261,1084
204433,-776,1212,1034
204474,-780,1235,1042
204512,-757,1238,1123
204574,-728,1212,1105
204615,-713,1289,1106
204658,-705,1290,1095
204673,-707,1299,1043
204713,-722,1293,1041
204753,-718,1309,1045
204808,-743,1267,1080
204833,-743,1252,1082
204874,-730,1251,1106
204914,-740,1261,1082
204953,-727,1270,1084
204994,-745,1280,1077
205033,-724,1277,1068
205095,-722,1279,1058
205113,-714,1301,1068
205154,-708,1281,1063
205206,-735,1275,1087
205238,-725,1266,1079
205284,-712,1269,1062
205313,-720,1275,1080
205353,-706,1305,1091
205394,-746,1275,1066
205434,-749,1256,1080
205495,-739,1169,1097
205513,-736,1202,1086
205554,-746,1305,1063
205593,-719,1329,1043
205633,-695,1280,1066
205673,-732,1275,1096
205713,-750,1234,1093
205753,-734,1253,1065
205816,-789,1268,1096
205866,-683,1217,1076
205905,-676,1340,1139
205915,-689,1239,1096
205956,-670,1320,1098
205993,-684,1251,1067
206033,-697,1327,1077
206073,-696,1286,1101
206113,-717,1253,1096
206153,-696,1270,1092
206193,-648,1359,1089
206233,-731,1249,1063
206294,-636,1381,1063
206314,-661,1400,1068
206354,-690,1281,1071
206394,-708,1265,1103
206434,-695,1280,1089
206488,-697,1320,1050
206537,-689,1273,1067
206554,-695,1269,1071
206595,-674,1271,1091
206634,-703,1286,1087
206674,-685,1350,1064
206708,-705,1297,1065
206754,-722,1288,1078
206794,-751,1221,1079
206834,-690,1311,1132
206874,-593,1277,1156
206914,-656,1292,1074
206954,-669,1395,1002
206994,-707,1427,1022
207034,-706,1271,1077
207096,-777,1223,1095
207129,-790,1201,1102
207188,-788,1184,1055
207195,-787,1199,1052
207229,-784,1236,1086
207274,-736,1269,1114
207314,-722,1218,1132
207354,-732,1256,1113
207394,-734,1264,1082
207434,-745,1272,1073
207496,-761,1242,1073
207514,-796,1197,1043
207554,-814,1152,1073
207595,-792,1181,1101
207634,-781,1208,1103
207674,-772,1204,1130
207714,-738,1228,1140
207754,-724,1232,1104
207789,-742,1246,1084
207846,-736,1297,1064
207879,-748,1243,1076
207927,-749,1232,1098
207961,-760,1239,1099
208018,-730,1260,1124
208034,-719,1257,1121
208074,-729,1229,1097
208115,-717,1259,1106
208155,-713,1278,1112
208225,-719,1268,1087
208235,-707,1274,1094
208276,-718,1278,1079
208315,-755,1254,1069
208357,-739,1261,1093
208397,-737,1241,1097
208430,-736,1226,1106
208475,-726,1260,1096
208515,-724,1261,1082
208555,-747,1244,1063
208595,-741,1239,1086
208635,-732,1249,1129
208697,-755,1230,1109
208716,-757,1249,1099
208755,-724,1261,1086
208795,-716,1248,1110
208835,-732,1244,1074
208875,-703,1283,1116
208940,-759,1241,1097
208956,-758,1229,1076
208997,-740,1226,1099
209036,-722,1256,1109
209099,-746,1241,1099
209116,-730,1240,1105
209155,-731,1236,1104
209195,-735,1273,1096
209235,-718,1265,1116
209275,-740,1233,1082
209315,-728,1259,1114
209355,-705,1229,1102
209395,-770,1242,1103
209435,-740,1261,1081
209497,-736,1225,1116
209507,-740,1238,1093
209578,-713,1290,1119
209588,-710,1309,1109
209629,-713,1244,1103
209670,-725,1230,1108
209715,-734,1237,1102
209755,-775,1244,1088
209795,-747,1243,1115
209835,-729,1257,1108
209898,-706,1248,1100
209916,-703,1278,1118
209956,-704,1253,1086
209996,-717,1237,1093
210036,-703,1259,1110
210076,-708,1288,1111
210116,-723,1256,1111
210156,-722,1226,1106
210217,-714,1299,1087
210252,-728,1262,1111
210293,-740,1203,1134
210343,-719,1252,1120
210356,-732,1249,1121
210396,-720,1237,1100
210436,-716,1240,1100
210476,-702,1252,1092
210516,-702,1276,1085
210556,-707,1282,1109
210596,-747,1220,1115
210636,-759,1202,1115
210700,-727,1285,1106
210707,-731,1274,1089
210756,-719,1246,1100
210796,-715,1251,1088
210836,-721,1265,1084
210932,-727,1247,1114
210941,-732,1254,1099
210983,-715,1255,1120
211030,-724,1243,1110
211063,-744,1223,1107
211077,-747,1232,1094
211127,-730,1235,1097
211157,-726,1247,1104
211197,-745,1240,1105
211236,-733,1244,1090
211276,-729,1246,1099
211317,-736,1249,1097
211356,-730,1237,1126
211397,-730,1250,1122
211436,-713,1266,1090
211499,-726,1250,1095
211507,-716,1252,1107
211557,-735,1243,1093
211608,-715,1270,1113
211666,-726,1237,1118
211677,-749,1263,1074
211716,-721,1268,1060
211757,-737,1246,1089
211796,-729,1214,1106
211836,-731,1226,1120
211892,-728,1239,1120
211908,-729,1247,1107
211957,-685,1245,1121
211997,-679,1276,1103
212037,-669,1341,1076
212077,-706,1296,1092
212117,-680,1337,1037
212148,-683,1346,1034
212199,-703,1307,1046
212237,-714,1276,1080
212267,-682,1268,1111
212307,-666,1285,1077
212358,-704,1284,1072
212388,-705,1324,1041
212438,-693,1321,1036
212469,-733,1265,1035
212507,-703,1293,1071
212548,-673,1355,1088
212587,-701,1287,1073
212642,-690,1291,1074
212697,-696,1294,1099
212730,-687,1288,1087
212757,-724,1263,1057
212798,-704,1293,1072
212830,-697,1304,1085
212877,-716,1268,1065
212917,-699,1265,1073
212948,-697,1312,1102
212997,-705,1255,1084
213028,-713,1268,1077
213089,-711,1264,1062
213137,-699,1289,1076
213157,-696,1290,1083
213188,-708,1282,1093
213228,-697,1301,1117
213269,-739,1246,1053
213310,-725,1280,1075
213349,-711,1230,1077
213388,-684,1303,1090
213428,-650,1380,1131
213480,-673,1314,1082
213508,-721,1244,1040
213548,-733,1301,1033
213588,-677,1311,1118
213628,-692,1245,1137
213668,-705,1206,1146
213708,-699,1248,1104
213748,-693,1289,1086
213788,-673,1291,1096
213828,-678,1297,1097
213903,-711,1266,1102
213912,-698,1265,1106
213960,-691,1266,1076
214009,-696,1331,1054
214028,-662,1287,1098
214069,-652,1309,1109
214108,-661,1258,1090
214148,-684,1313,1103
214189,-679,1278,1115
214228,-710,1250,1121
214279,-692,1251,1101
214309,-673,1272,1095
214349,-676,1327,1076
214389,-682,1295,1109
214429,-681,1236,1137
214468,-689,1217,1092
214509,-725,1320,1062
214550,-703,1395,1032
214592,-728,1282,1037
214668,-689,1303,1071
214679,-690,1309,1075
214730,-686,1297,1097
214748,-677,1299,1085
214789,-657,1308,1080
214829,-680,1315,1076
214869,-673,1298,1082
214909,-690,1265,1084
214949,-689,1312,1082
214989,-672,1292,1096
215029,-682,1266,1088
215079,-623,1383,1095
215109,-665,1321,1097
215149,-721,1226,1076
215189,-697,1259,1091
215229,-662,1316,1068
215269,-640,1347,1069
215309,-666,1342,1084
215348,-693,1307,1076
215388,-678,1283,1070
215428,-698,1248,1092
215480,-704,1243,1090
215508,-701,1270,1123
215548,-706,1264,1089
215588,-695,1289,1080
215628,-706,1298,1080
215668,-684,1285,1055
215708,-689,1265,1110
215748,-696,1278,1095
215790,-666,1304,1089
215830,-673,1258,1105
215871,-693,1295,1077
215914,-689,1283,1068
215952,-680,1298,1069
215989,-682,1278,1092
216028,-682,1284,1106
216069,-672,1277,1103
216109,-672,1302,1110
216150,-690,1282,1078
216189,-704,1276,1090
216229,-697,1273,1086
216269,-678,1279,1089
216310,-692,1277,1102
216373,-677,1290,1080
216389,-687,1286,1082
216430,-665,1284,1109
216470,-677,1289,1085
216509,-677,1286,1088
216549,-688,1294,1082
216589,-676,1278,1101
216629,-669,1288,1094
216689,-692,1300,1094
216709,-676,1255,1092
216749,-680,1287,1088
216789,-677,1285,1100
216829,-689,1297,1092
216869,-687,1279,1105
216921,-689,1284,1065
216971,-687,1280,1105
217011,-682,1292,1104
217030,-674,1295,1077
217069,-683,1307,1067
217111,-655,1285,1080
217149,-671,1304,1112
217189,-717,1258,1052
217229,-697,1270,1082
217269,-678,1292,1112
217309,-699,1248,1104
217349,-705,1271,1084
217389,-699,1284,1094
217429,-690,1308,1084
217482,-656,1306,1083
217509,-649,1309,1101
217562,-671,1317,1087
217632,-680,1307,1086
217642,-685,1315,1082
217691,-673,1293,1090
217710,-693,1288,1097
217750,-692,1288,1090
217790,-664,1304,1087
217830,-667,1314,1071
217890,-665,1295,1078
217910,-674,1300,1059
217950,-679,1322,1072
217990,-671,1308,1068
218030,-709,1288,1079
218070,-681,1293,1100
218110,-668,1296,1086
218150,-690,1280,1076
218190,-667,1298,1078
218233,-695,1304,1087
218271,-680,1292,1068
218341,-651,1325,1104
218374,-656,1317,1057
218392,-654,1320,1063
218431,-665,1329,1070
218470,-698,1255,1068
218510,-713,1228,1106
218550,-675,1287,1123
218590,-695,1269,1097
218630,-710,1277,1070
218691,-657,1326,1074
218710,-678,1310,1047
218750,-686,1251,1055
218790,-632,1292,1139
218830,-695,1299,1114
218870,-688,1296,1087
218910,-663,1323,1054
218954,-671,1352,1051
219001,-681,1339,1051
219032,-665,1289,1076
219092,-653,1316,1095
219110,-638,1328,1107
219150,-654,1327,1075
219190,-671,1285,1086
219230,-665,1302,1072
219270,-646,1344,1050
219310,-647,1366,1077
219350,-630,1351,1068
219390,-641,1344,1075
219430,-654,1330,1069
219483,-632,1338,1069
219511,-651,1315,1074
219571,-666,1325,1046
219606,-666,1326,1054
219643,-636,1320,1054
219671,-617,1343,1074
219711,-624,1327,1080
219752,-631,1337,1076
219792,-634,1347,1038
219832,-641,1358,1046
219891,-639,1340,1050
219911,-649,1334,1057
219951,-652,1328,1039
219992,-639,1349,1060
220031,-632,1331,1074
220081,-633,1341,1055
220112,-632,1353,1079
220151,-633,1342,1066
220192,-636,1363,1049
220231,-654,1342,1051
220283,-644,1338,1066
220332,-638,1329,1080
220414,-631,1346,1055
220417,-634,1338,1052
220431,-638,1339,1056
220471,-638,1353,1049
220512,-624,1353,1050
220552,-639,1338,1056
220591,-642,1325,1065
220632,-639,1337,1066
220686,-650,1350,1054
220711,-650,1338,1041
220752,-657,1336,1048
220792,-653,1351,1065
220831,-643,1344,1065
220871,-642,1343,1062
220928,-636,1344,1055
220973,-650,1337,1054
221017,-649,1334,1071
221032,-652,1342,1064
221071,-641,1330,1089
221113,-634,1335,1052
221151,-648,1344,1061
221191,-649,1331,1077
221231,-647,1323,1064
221271,-654,1350,1043
221311,-643,1346,1066
221351,-635,1351,1056
221391,-634,1346,1053
221432,-646,1347,1058
221486,-647,1356,1074
221512,-654,1338,1058
221563,-661,1334,1048
221607,-631,1332,1061
221663,-642,1354,1060
221672,-639,1351,1049
221712,-647,1336,1051
221752,-647,1347,1065
221792,-644,1338,1058
221833,-635,1317,1070
221894,-641,1354,1078
221912,-646,1352,1060
221952,-641,1328,1072
221992,-644,1355,1061
222032,-640,1354,1066
222072,-645,1336,1049
222112,-654,1311,1042
222152,-646,1305,1052
222214,-619,1365,1064
222256,-612,1353,1088
222333,-648,1360,1048
222373,-663,1312,1036
222384,-666,1306,1045
222423,-648,1325,1072
222433,-645,1324,1067
222473,-633,1342,1089
222513,-630,1322,1089
222553,-641,1347,1058
222592,-636,1322,1059
222632,-648,1353,1050
222688,-650,1328,1052
222713,-665,1333,1076
222753,-632,1343,1087
222793,-645,1324,1064
222832,-643,1310,1066
222872,-634,1340,1047
222912,-649,1336,1047
222954,-649,1332,1060
223003,-657,1331,1068
223036,-661,1312,1073
223094,-655,1316,1078
223112,-648,1302,1088
223152,-669,1300,1080
223192,-651,1296,1061
223232,-643,1333,1057
223272,-661,1325,1069
223312,-649,1323,1072
223353,-655,1328,1089
223392,-664,1311,1074
223433,-659,1317,1067
223486,-666,1323,1069
223514,-648,1299,1082
223574,-651,1317,1082
223616,-652,1326,1057
223633,-650,1310,1079
223673,-650,1309,1066
223714,-662,1321,1068
223754,-660,1331,1083
223814,-661,1316,1099
223834,-664,1325,1069
223875,-650,1318,1070
223913,-647,1314,1089
223955,-661,1323,1076
223996,-658,1314,1089
224037,-661,1305,1061
224073,-661,1334,1065
224114,-663,1303,1064
224154,-667,1318,1078
224193,-654,1293,1097
224233,-658,1310,1094
224295,-668,1323,1070
224313,-658,1313,1078
224353,-651,1312,1081
224394,-656,1327,1083
224434,-663,1309,1076
224473,-674,1290,1071
224514,-658,1317,1073
224576,-665,1315,1096
224617,-660,1310,1092
224665,-663,1323,1053
224673,-656,1311,1055
224715,-657,1320,1082
224755,-663,1301,1075
224793,-658,1323,1077
224833,-670,1320,1078
224874,-667,1301,1072
224913,-670,1315,1075
224954,-655,1316,1060
224993,-661,1308,1106
225033,-657,1308,1076
225093,-645,1322,1084
225113,-662,1338,1063
225153,-663,1294,1088
225194,-673,1326,1084
225233,-645,1322,1079
225317,-658,1322,1098
225326,-644,1316,1081
225376,-648,1298,1081
225396,-660,1306,1078
225434,-657,1317,1082
225474,-665,1320,1059
225509,-663,1315,1081
225554,-657,1306,1071
225595,-656,1313,1083
225634,-667,1319,1080
225674,-650,1307,1072
225714,-648,1311,1069
225754,-658,1299,1086
225794,-667,1323,1083
225834,-661,1312,1063
225895,-647,1311,1085
225936,-663,1315,1059
225974,-647,1307,1079
226056,-656,1342,1069
226067,-649,1338,1074
226105,-661,1293,1090
226114,-658,1295,1076
226154,-660,1305,1063
226194,-651,1324,1089
226234,-644,1326,1077
226296,-647,1339,1095
226314,-640,1327,1084
226354,-661,1326,1049
226394,-662,1309,1054
226434,-683,1289,1094
226474,-712,1269,1069
226514,-696,1291,1077
226554,-686,1303,1078
226594,-701,1286,1060
226635,-696,1351,1043
226705,-669,1298,1031
226739,-676,1301,1015
226749,-682,1395,1017
226794,-707,1389,978
226834,-693,1379,1022
226874,-690,1350,1050
226914,-682,1271,1051
226954,-679,1293,1016
226994,-675,1388,950
227034,-668,1407,969
227097,-673,1423,986
227114,-651,1448,993
227154,-606,1461,985
227194,-680,1347,1067
227234,-765,1149,1001
227287,-692,1414,980
227327,-666,1405,1046
227365,-679,1287,1063
227396,-683,1265,1076
227435,-727,1286,1052
227499,-686,1334,1030
227508,-696,1344,1060
227555,-757,1249,1028
227595,-775,1248,1029
227635,-764,1301,1011
227706,-755,1275,1039
227716,-747,1242,1034
227755,-729,1266,1057
227795,-720,1303,1049
227837,-715,1311,1049
227901,-711,1319,1045
227908,-721,1310,1026
227958,-708,1328,1010
227999,-703,1312,1062
228046,-713,1314,1039
228075,-710,1338,1034
228115,-696,1302,1050
228155,-699,1310,1061
228196,-689,1315,1068
228236,-685,1314,1069
228299,-685,1316,1050
228315,-699,1321,1042
228356,-702,1310,1035
228396,-693,1314,1058
228436,-688,1308,1043
228476,-686,1297,1070
228515,-691,1305,1068
228596,-692,1309,1056
228638,-689,1302,1050
228647,-689,1323,1055
228707,-696,1336,1037
228757,-686,1309,1054
228767,-684,1310,1076
228796,-687,1325,1053
228836,-699,1324,1050
228876,-684,1325,1052
228916,-690,1323,1042
228956,-694,1303,1047
228996,-686,1326,1060
229036,-676,1322,1045
229100,-681,1322,1045
229116,-683,1312,1054
229155,-677,1309,1061
229195,-688,1325,1074
229235,-684,1316,1057
229309,-678,1311,1052
229347,-676,1321,1055
229358,-687,1312,1053
229408,-685,1342,1052
229450,-684,1306,1054
229498,-675,1333,1044
229531,-689,1333,1046
229557,-693,1315,1064
229597,-688,1332,1056
229637,-681,1313,1037
229677,-686,1333,1054
229717,-678,1324,1077
229757,-677,1316,1063
229797,-680,1335,1052
229837,-686,1323,1050
229908,-682,1301,1054
229918,-680,1305,1071
229957,-693,1342,1048
229997,-671,1326,1052
230036,-697,1318,1068
230087,-672,1328,1048
230187,-683,1336,1051
230196,-675,1321,1069
230206,-680,1334,1055
230236,-662,1338,1047
230276,-664,1322,1063
230349,-679,1332,1052
230366,-680,1331,1052
230397,-679,1309,1061
230437,-666,1329,1059
230477,-682,1337,1060
230516,-679,1319,1064
230556,-670,1316,1043
230596,-687,1332,1062
230636,-673,1318,1057
230700,-672,1331,1061
230739,-669,1309,1058
230749,-662,1325,1052
230809,-677,1320,1036
230853,-671,1321,1058
230876,-680,1308,1052
230916,-685,1308,1057
230956,-663,1328,1059
230996,-661,1342,1071
231036,-669,1329,1054
231099,-672,1326,1050
231108,-666,1330,1040
231156,-687,1327,1054
231196,-670,1319,1061
231236,-672,1313,1058
231278,-672,1312,1062
231318,-675,1330,1055
231358,-659,1338,1066
231399,-677,1320,1069
231459,-671,1303,1051
231476,-674,1310,1055
231518,-672,1328,1055
231557,-673,1303,1052
231588,-662,1329,1048
231658,-677,1323,1056
231668,-675,1325,1034
231707,-672,1329,1053
231747,-685,1339,1045
231788,-680,1329,1053
231850,-671,1327,1069
231907,-678,1324,1045
231918,-669,1329,1054
231957,-668,1338,1061
231997,-669,1333,1048
232051,-679,1323,1066
232067,-679,1327,1053
232117,-670,1313,1062
232157,-670,1317,1071
232197,-682,1331,1049
232237,-669,1330,1048
232298,-664,1327,1046
232309,-670,1334,1057
232357,-684,1329,1047
232397,-662,1332,1055
232449,-658,1302,1064
232499,-678,1331,1054
232543,-693,1327,1061
232550,-682,1331,1061
232610,-675,1328,1047
232627,-676,1311,1049
232701,-671,1341,1062
232709,-676,1339,1059
232757,-672,1330,1062
232797,-673,1329,1036
232837,-671,1335,1068
232877,-669,1331,1053
232917,-672,1327,1060
232957,-667,1335,1039
232988,-675,1311,1050
233028,-670,1337,1057
233100,-676,1322,1074
233110,-667,1325,1070
233169,-666,1326,1056
233210,-664,1333,1077
233311,-659,1331,1041
233350,-665,1330,1073
233357,-663,1335,1055
233368,-660,1333,1071
233388,-668,1329,1048
233428,-673,1329,1027
233468,-672,1318,1062
233512,-669,1326,1059
233548,-673,1345,1048
233588,-656,1337,1064
233628,-662,1334,1051
233668,-662,1329,1053
233708,-655,1339,1048
233748,-659,1333,1049
233788,-657,1319,1060
233828,-664,1320,1067
233891,-666,1344,1049
233939,-663,1324,1059
233981,-677,1346,1063
233990,-649,1330,1046
234032,-674,1331,1054
234068,-655,1331,1063
234108,-671,1340,1047
234148,-673,1319,1052
234188,-663,1340,1073
234228,-650,1325,1057
234300,-663,1356,1035
234309,-657,1355,1041
234348,-663,1337,1046
234388,-671,1342,1060
234428,-661,1308,1053
234468,-675,1318,1048
234508,-656,1336,1052
234574,-663,1330,1050
234629,-665,1343,1036
234672,-660,1337,1065
234678,-656,1334,1084
234722,-660,1322,1035
234748,-670,1327,1054
234788,-653,1331,1067
234828,-665,1340,1058
234868,-664,1327,1057
234909,-665,1337,1061
234948,-650,1329,1057
234989,-668,1344,1065
235028,-662,1322,1056
235094,-664,1344,1055
235109,-663,1334,1052
235149,-665,1334,1051
235220,-679,1338,1032
235265,-674,1334,1044
235269,-666,1340,1047
235312,-660,1337,1049
235350,-674,1313,1058
235389,-662,1349,1035
235430,-668,1334,1048
235501,-670,1336,1072
235510,-657,1338,1055
235549,-673,1326,1058
235590,-659,1337,1054
235630,-676,1325,1048
235693,-662,1331,1054
235710,-658,1339,1044
235749,-658,1334,1051
235789,-674,1324,1067
235829,-663,1342,1042
235869,-673,1336,1052
235941,-666,1327,1048
235951,-661,1338,1047
235990,-664,1343,1052
236029,-668,1333,1047
236070,-661,1330,1050
236109,-655,1330,1055
236150,-671,1332,1057
236231,-665,1335,1060
236270,-662,1335,1052
236283,-656,1340,1050
236321,-670,1320,1046
236391,-660,1327,1060
236401,-664,1316,1061
236429,-668,1326,1063
236469,-666,1351,1019
236509,-675,1319,1036
236550,-658,1352,1061
236589,-666,1318,1067
236630,-675,1358,1058
236695,-663,1334,1059
236710,-657,1317,1045
236750,-665,1340,1055
236789,-661,1326,1054
236830,-670,1351,1043
236869,-661,1343,1051
236946,-662,1341,1054
236952,-663,1334,1061
237001,-648,1331,1057
237081,-650,1336,1038
237091,-664,1346,1042
237191,-668,1341,1076
237201,-660,1339,1067
237210,-661,1325,1060
237230,-659,1332,1052
237270,-668,1322,1048
237310,-665,1325,1063
237350,-672,1328,1046
237390,-643,1347,1059
237430,-661,1334,1050
237494,-663,1357,1050
237511,-666,1350,1052
237550,-674,1328,1060
237590,-656,1336,1067
237630,-665,1316,1045
237670,-659,1352,1054
237741,-661,1345,1053
237752,-648,1330,1039
237801,-661,1339,1044
237844,-667,1332,1055
237895,-660,1329,1057
237921,-665,1328,1055
237950,-653,1327,1045
237990,-662,1339,1055
238030,-672,1344,1045
238070,-660,1337,1055
238110,-651,1349,1058
238150,-668,1340,1065
238191,-662,1335,1043
238230,-661,1331,1054
238294,-654,1330,1055
238312,-673,1329,1069
238384,-665,1346,1035
238391,-660,1342,1050
238443,-657,1350,1044
238491,-659,1322,1058
238511,-662,1338,1057
238550,-658,1341,1052
238590,-653,1332,1042
238630,-661,1344,1052
238703,-655,1346,1045
238711,-670,1359,1058
238750,-650,1340,1054
238790,-662,1350,1059
238830,-655,1332,1025
238870,-656,1344,1037
238910,-656,1338,1046
238950,-664,1319,1057
238991,-653,1344,1044
239032,-656,1338,1052
239103,-661,1334,1035
239145,-662,1339,1070
239154,-647,1328,1042
239215,-656,1327,1044
239231,-653,1331,1049
239272,-650,1346,1054
239312,-658,1337,1061
239352,-654,1324,1055
239392,-650,1326,1044
239432,-660,1352,1069
239504,-649,1331,1055
239512,-661,1324,1055
239551,-640,1354,1023
239592,-646,1344,1026
239632,-661,1348,1053
239700,-656,1335,1056
239712,-657,1352,1049
239751,-658,1351,1051
239791,-662,1350,1042
239831,-655,1339,1060
239872,-661,1353,1035
239912,-653,1340,1050
240013,-660,1347,1048
240022,-651,1353,1063
240067,-655,1343,1049
240068,-650,1343,1068
240133,-658,1342,1059
240152,-659,1336,1060
240192,-643,1341,1049
240231,-658,1321,1047
240271,-653,1322,1059
240325,-650,1331,1069
240351,-665,1334,1044
240391,-656,1335,1065
240431,-653,1327,1054
240471,-647,1352,1051
240511,-649,1325,1067
240551,-669,1355,1054
240591,-651,1345,1046
240631,-655,1337,1041
240724,-666,1355,1058
240733,-656,1351,1048
240753,-638,1352,1051
240795,-661,1335,1044
240854,-669,1351,1049
240902,-652,1347,1036
240947,-657,1336,1052
240950,-661,1342,1042
240991,-659,1338,1058
241031,-661,1333,1062
241096,-648,1342,1052
241113,-657,1333,1037
241153,-645,1338,1052
241193,-649,1337,1057
241233,-660,1344,1040
241273,-652,1337,1063
241313,-664,1338,1045
241352,-654,1343,1062
241392,-668,1321,1066
241432,-654,1363,1056
241493,-649,1314,1047
241536,-651,1355,1040
241553,-651,1340,1033
241634,-667,1348,1051
241643,-652,1330,1056
241672,-653,1328,1041
241712,-648,1352,1053
241752,-660,1338,1029
241792,-657,1347,1046
241832,-657,1333,1055
241898,-652,1339,1042
241914,-649,1345,1050
241952,-648,1337,1062
241992,-651,1348,1068
242032,-652,1341,1060
242072,-641,1332,1052
242112,-654,1327,1049
242185,-658,1341,1039
242193,-664,1344,1063
242240,-661,1350,1051
242284,-648,1336,1062
242326,-659,1337,1034
242353,-653,1340,1061
242392,-643,1353,1051
242432,-652,1319,1068
242472,-656,1349,1047
242512,-658,1353,1041
242553,-663,1343,1064
242592,-650,1335,1040
242632,-650,1348,1082
242695,-655,1343,1043
242713,-641,1339,1053
242752,-638,1339,1061
242833,-642,1335,1060
242884,-655,1334,1056
242923,-658,1343,1046
242927,-659,1356,1060
242952,-662,1356,1065
242993,-643,1357,1056
243033,-666,1332,1046
243095,-648,1343,1049
243114,-635,1341,1049
243153,-657,1341,1031
243193,-663,1354,1033
243233,-649,1351,1066
243273,-657,1331,1046
243313,-639,1355,1056
243353,-644,1335,1054
243393,-645,1369,1052
243433,-662,1348,1055
243517,-658,1341,1045
243525,-643,1341,1051
243553,-650,1335,1053
243593,-645,1359,1040
243633,-638,1347,1055
243673,-642,1339,1030
243744,-641,1349,1045
243753,-640,1352,1052
243793,-647,1347,1072
243833,-639,1340,1046
243873,-635,1351,1060
243913,-649,1347,1050
243976,-641,1346,1053
244024,-653,1341,1061
244034,-643,1350,1073
244115,-657,1352,1047
244125,-655,1333,1046
244154,-645,1336,1051
244194,-644,1329,1064
244234,-637,1349,1046
244274,-637,1345,1059
244314,-637,1342,1043
244366,-639,1344,1053
244434,-650,1348,1057
244443,-640,1359,1066
244473,-651,1341,1044
244514,-648,1359,1038
244587,-644,1342,1054
244596,-643,1332,1049
244645,-654,1360,1038
244695,-637,1366,1054
244764,-640,1341,1066
244776,-655,1339,1068
244834,-659,1337,1049
244843,-657,1347,1054
244874,-655,1352,1065
244913,-647,1324,1058
244954,-645,1335,1036
244994,-652,1358,1042
245034,-646,1352,1031
245096,-645,1352,1045
245115,-651,1354,1055
245154,-648,1355,1058
245194,-649,1345,1047
245234,-642,1360,1045
245275,-646,1351,1048
245314,-651,1354,1057
245376,-663,1350,1060
245428,-639,1355,1055
245436,-657,1346,1059
245479,-636,1345,1045
245519,-652,1337,1046
245554,-650,1345,1052
245594,-646,1353,1049
245634,-645,1353,1048
245674,-653,1349,1060
245714,-645,1341,1060
245754,-646,1361,1041
245794,-653,1338,1050
245835,-641,1352,1048
245897,-651,1329,1041
245914,-650,1358,1047
245954,-651,1335,1060
246025,-645,1373,1028
246036,-644,1380,1033
246087,-647,1352,1065
246134,-644,1342,1038
246154,-648,1331,1062
246194,-637,1360,1043
246235,-640,1343,1066
246306,-652,1357,1051
246314,-647,1363,1055
246354,-647,1354,1029
246395,-650,1353,1038
246434,-648,1355,1041
246474,-655,1353,1042
246514,-644,1344,1031
246554,-650,1358,1044
246594,-639,1363,1060
246677,-645,1342,1035
246684,-642,1354,1054
246729,-631,1354,1058
246767,-640,1347,1055
246831,-642,1346,1058
246835,-656,1349,1041
246874,-629,1378,1047
246914,-642,1341,1043
246954,-634,1368,1040
246994,-631,1357,1048
247034,-647,1344,1040
247105,-635,1339,1044
247116,-634,1334,1040
247155,-625,1365,1042
247195,-625,1360,1049
247235,-635,1350,1049
247275,-650,1359,1060
247315,-650,1349,1057
247377,-649,1349,1043
247436,-644,1358,1035
247478,-649,1359,1052
247523,-635,1363,1048
247535,-641,1351,1033
247556,-651,1353,1056
247596,-644,1347,1060
247636,-638,1352,1036
247705,-659,1356,1031
247715,-641,1354,1064
247755,-638,1355,1056
247795,-641,1348,1038
247835,-621,1376,1043
247897,-637,1349,1043
247916,-639,1351,1044
247956,-631,1358,1045
248029,-631,1357,1061
248038,-639,1355,1054
248075,-631,1362,1040
248115,-631,1351,1047
248156,-648,1360,1025
248195,-634,1358,1050
248236,-637,1344,1048
248297,-632,1351,1033
248315,-641,1358,1048
248356,-643,1373,1059
248395,-639,1331,1053
248448,-633,1358,1043
248496,-643,1365,1037
248542,-642,1359,1037
248589,-637,1365,1038
248595,-643,1360,1026
248645,-664,1350,1031
248676,-649,1367,1023
248737,-646,1346,1030
248755,-672,1339,1026
248795,-628,1365,1042
248836,-637,1368,1040
248875,-641,1352,1024
248916,-662,1344,1014
248955,-661,1362,1013
248996,-649,1381,1026
249036,-624,1380,1071
249096,-624,1291,1047
249116,-635,1338,1027
249175,-663,1333,992
249188,-668,1340,960
249227,-714,1416,932
249269,-641,1471,993
249316,-626,1300,1082
249356,-622,1383,1048
249396,-609,1406,1020
249437,-622,1414,1006
249500,-626,1353,1018
249516,-616,1372,1024
249556,-620,1364,1035
249596,-639,1385,1041
249636,-630,1392,1041
249676,-621,1369,1019
249716,-637,1379,1041
249756,-613,1376,1033
249810,-634,1375,1015
249857,-637,1377,1035
249932,-652,1383,1022
249943,-638,1369,1013
249947,-637,1382,1019
249997,-621,1383,1024
250036,-625,1386,1025
250076,-629,1365,1028
250116,-627,1390,1038
250156,-615,1385,1014
250196,-631,1366,1027
250237,-609,1369,1047
250298,-620,1394,1034
250307,-621,1389,1040
250356,-623,1375,1039
250397,-601,1405,1028
250436,-609,1390,1029
250489,-626,1361,1044
250541,-619,1436,1023
250591,-612,1366,1054
250598,-609,1375,1048
250636,-611,1348,1046
250676,-586,1421,1026
250743,-609,1390,1025
250748,-609,1377,1036
250797,-643,1326,1052
250837,-610,1398,1039
250876,-607,1370,1033
250917,-606,1392,1035
250957,-609,1371,1045
250997,-607,1374,1044
251037,-611,1378,1036
251098,-618,1368,1021
251141,-616,1394,1040
251149,-604,1378,1034
251207,-619,1380,1050
251260,-606,1377,1037
251277,-612,1386,1024
251317,-617,1398,1026
251358,-608,1378,1022
251398,-617,1365,1037
251437,-614,1371,1050
251501,-611,1410,1017
251517,-604,1400,1033
251547,-600,1365,1038
251598,-617,1383,1028
251627,-604,1392,1028
251692,-598,1391,1032
251707,-613,1399,1026
251747,-609,1371,1022
251787,-609,1382,1025
251828,-601,1396,1026
251891,-631,1380,1018
251909,-625,1386,1016
251952,-624,1386,1015
252018,-611,1388,1028
252064,-611,1378,1013
252069,-611,1387,1022
252118,-605,1376,1022
252158,-605,1386,1032
252197,-606,1387,1020
252228,-611,1378,1019
252268,-623,1384,1020
252318,-604,1394,1018
252358,-610,1384,1029
252398,-620,1404,1032
252438,-599,1378,1038
252478,-609,1391,1023
252518,-605,1396,1010
252558,-604,1377,1032
252619,-608,1384,1032
252628,-599,1387,1013
252672,-586,1390,1029
252719,-599,1396,1025
252754,-606,1404,1043
252811,-595,1394,1013
252860,-590,1399,1029
252867,-604,1388,1017
252918,-603,1407,1023
252958,-601,1387,1030
252988,-601,1380,1017
253028,-605,1388,1022
253102,-606,1402,1049
253108,-602,1397,1022
253148,-597,1381,1030
253188,-603,1389,1027
253228,-597,1390,1014
253268,-612,1389,1020
253309,-600,1396,1046
253349,-602,1397,1039
253410,-595,1401,1010
253508,-593,1397,1040
253559,-597,1412,1036
253568,-587,1397,999
253579,-594,1391,1018
253588,-599,1401,1002
253628,-605,1398,1014
253669,-611,1398,1000
253709,-603,1395,1012
253749,-587,1395,1022
253789,-599,1380,1025
253829,-612,1417,1017
253893,-593,1390,1032
253908,-580,1382,1010
253949,-588,1409,1023
253989,-595,1414,1006
254029,-594,1405,1037
254089,-607,1394,1021
254110,-619,1396,1028
254149,-600,1407,1040
254211,-582,1389,1033
254228,-599,1393,1020
254294,-591,1397,1031
254308,-605,1386,1018
254348,-589,1386,1039
254388,-591,1400,1025
254428,-607,1386,1043
254468,-593,1394,1025
254508,-588,1400,1018
254548,-585,1399,1029
254588,-591,1393,1026
254628,-583,1399,1034
254690,-603,1395,1032
254709,-592,1379,1014
254761,-602,1386,1042
254809,-603,1410,1021
254854,-598,1393,1016
254899,-605,1397,1027
254912,-590,1402,1025
254950,-589,1397,1033
254990,-607,1388,1018
255030,-589,1395,1018
255099,-600,1399,1011
255109,-611,1402,1017
255149,-597,1394,1011
255189,-589,1412,1016
255229,-598,1391,1027
255269,-601,1383,1018
255309,-608,1395,1027
255349,-596,1371,1035
255389,-613,1375,1040
255451,-608,1425,1006
255500,-613,1390,1021
255510,-602,1371,997
255550,-603,1393,1042
255589,-566,1415,1050
255629,-573,1422,1060
255692,-615,1394,986
255709,-599,1403,985
255750,-603,1412,978
255790,-620,1387,1022
255829,-623,1376,1039
255903,-602,1368,1014
255911,-601,1383,1031
255974,-587,1383,1026
255991,-599,1377,1018
256052,-632,1382,1012
256069,-607,1392,1017
256109,-602,1396,1044
256149,-587,1383,1044
256189,-612,1385,1035
256229,-610,1386,1025
256301,-609,1378,1026
256311,-633,1379,1017
256349,-640,1377,1028
256389,-562,1418,1044
256429,-574,1391,1049
256469,-629,1373,992
256540,-587,1413,1032
256583,-609,1381,1043
256592,-603,1383,1038
256635,-596,1383,1058
256673,-592,1395,1029
256719,-615,1413,999
256766,-614,1401,1020
256790,-619,1367,1022
256830,-610,1385,1022
256870,-618,1388,1029
256910,-596,1396,1029
256950,-598,1408,1027
256990,-591,1379,1001
257030,-607,1398,1017
257101,-603,1391,1030
257111,-590,1391,1033
257150,-597,1395,1033
257190,-602,1408,1015
257262,-617,1403,1013
257273,-608,1398,1028
257316,-600,1394,1030
257350,-599,1390,1000
257390,-604,1393,1006
257430,-602,1387,1026
257496,-599,1393,1029
257510,-591,1407,1013
257550,-597,1418,1018
257590,-605,1373,1012
257630,-603,1400,1019
257670,-600,1421,1017
257710,-593,1426,1003
257750,-596,1391,1012
257791,-596,1387,1031
257830,-590,1422,1002
257893,-603,1382,1023
257935,-609,1402,1017
257980,-584,1407,1009
257993,-596,1393,1013
258042,-610,1412,1002
258070,-606,1392,1007
258110,-598,1396,1020
258150,-598,1400,1036
258190,-609,1393,1005
258230,-604,1388,1025
258292,-588,1430,1027
258311,-644,1348,1015
258351,-606,1421,1040
258391,-596,1386,1007
258431,-608,1388,1029
258471,-613,1380,1015
258511,-584,1463,996
258582,-624,1372,1014
258594,-616,1367,1025
258644,-616,1413,997
258693,-590,1395,1011
258745,-599,1385,1021
258752,-590,1395,1018
258791,-589,1389,1024
258831,-597,1390,1016
258871,-595,1410,1002
258911,-596,1399,1031
258951,-606,1393,1031
258991,-597,1416,1017
259031,-595,1389,1032
259096,-609,1419,1014
259112,-609,1408,1014
259151,-615,1399,1018
259191,-593,1409,1031
259231,-602,1397,1025
259287,-598,1405,1010
259332,-603,1415,997
259353,-603,1417,1019
259396,-610,1402,995
259432,-599,1389,1008
259471,-613,1392,1015
259512,-587,1406,1032
259552,-602,1398,1034
259622,-604,1414,999
259631,-609,1419,1005
259671,-598,1394,992
259713,-597,1404,1024
259752,-608,1406,1006
259823,-602,1392,1026
259833,-600,1402,1010
259871,-585,1406,1014
259912,-599,1410,1031
259951,-596,1396,1016
260003,-606,1410,995
260033,-604,1397,1017
260072,-603,1391,1029
260112,-582,1399,1027
260152,-593,1409,1030
260192,-595,1406,1025
260232,-600,1412,998
260295,-578,1390,1012
260344,-607,1403,1005
260354,-599,1417,1017
260413,-603,1400,1003
260454,-594,1402,1018
260513,-594,1399,1029
260554,-603,1405,998
260562,-603,1408,1006
260593,-592,1397,1005
260632,-592,1416,1019
260708,-586,1409,1020
260713,-598,1409,1010
260752,-580,1410,1016
260792,-589,1393,1017
260833,-600,1409,1028
260872,-605,1408,1004
260913,-598,1403,1006
260952,-595,1414,1014
260993,-591,1401,1023
261032,-608,1394,1039
261095,-590,1417,986
261146,-600,1394,1003
261155,-593,1397,1012
261208,-593,1387,1010
261256,-606,1408,1013
261272,-604,1421,1010
261313,-593,1398,1034
261353,-608,1405,1016
261393,-595,1406,1007
261433,-597,1387,1009
261505,-606,1385,1021
261513,-599,1391,1027
261553,-597,1411,1035
261593,-590,1409,1018
261633,-603,1403,1014
261674,-595,1402,1020
261713,-601,1401,1019
261754,-594,1402,1014
261798,-592,1401,1013
261948,-646,1293,1094
261953,-636,1310,1101
261996,-533,1387,1028
262001,-536,1391,992
262006,-517,1392,1014
262033,-490,1554,949
262074,-473,1407,946
262113,-457,1350,897
262154,-446,1392,893
262193,-502,1464,932
262233,-553,1447,864
262299,-427,1435,817
262315,-418,1532,822
262354,-487,1649,883
262394,-516,2100,918
262434,-576,1255,485
262474,-288,2176,714
262514,-382,1722,693
262557,-218,1415,659
262604,-290,1853,687
262666,-426,1858,667
262708,-522,1810,439
262715,-526,1909,435
262754,-626,1918,374
262794,-768,1853,347
262834,-882,1715,404
262874,-883,1703,401
262914,-953,1690,271
262954,-1012,1584,297
262994,-1035,1557,208
263034,-1077,1358,188
263106,-1329,1605,-46
263115,-1390,1710,-122
263154,-1701,1754,-573
263213,-1542,2561,-49
263257,-1567,1526,-321
263273,-1470,1525,-284
263318,-1189,1601,-133
263353,-1240,1469,-158
263393,-1196,1272,-201
263435,-1173,1336,-278
263505,-1177,1295,-367
263515,-1202,1449,-374
263555,-1103,1409,-381
263593,-1051,1151,-384
263634,-1054,1167,-420
263704,-1094,1157,-404
263714,-1125,1179,-408
263755,-1281,1460,-466
263794,-1304,1621,-513
263836,-1278,1254,-420
263916,-1446,1694,-90
263958,-1492,1450,-93
263966,-1512,1380,-134
264008,-1698,1350,-67
264066,-1014,1447,139
264116,-1061,1475,218
264156,-1094,1493,190
264164,-1248,1217,63
264194,-1275,1189,54
264235,-1324,1162,86
264275,-1463,976,273
264314,-1463,812,303
264355,-1402,719,344
264409,-1331,677,330
264434,-1380,660,354
264474,-1292,656,314
264514,-1236,783,334
264554,-1534,795,218
264594,-1923,1009,88
264634,-1767,857,-25
264697,-1522,859,-37
264755,-1701,974,-142
264796,-1731,989,-161
264804,-1900,1057,-73
264854,-1821,1133,-325
264874,-1901,1138,-448
264914,-1860,1172,-200
264954,-1786,935,-261
264994,-1815,907,-184
265034,-1896,743,-175
265106,-1764,737,-148
265115,-1734,749,-135
265154,-1616,921,-48
265194,-1554,1081,-49
265234,-1608,1330,-34
265274,-1604,1106,-99
265316,-2238,1189,-56
265383,-1149,801,312
265396,-1230,749,277
265449,-1245,1083,421
265529,-1377,833,372
265540,-1396,810,398
265555,-1433,839,392
265595,-1478,806,370
265635,-1526,746,361
265675,-1655,1099,383
265715,-1776,900,355
265755,-1615,775,285
265795,-1373,704,230
265835,-1673,848,191
265897,-1843,813,102
265916,-1682,763,80
265955,-1511,906,160
265995,-1630,1017,131
266035,-1724,928,51
266097,-1708,908,76
266148,-1779,965,125
266156,-1793,952,125
266202,-1896,810,15
266235,-1942,859,13
266307,-1312,1174,244
266317,-1215,1312,306
266355,-1512,1540,236
266396,-1421,924,233
266436,-1635,648,224
266476,-1614,801,302
266516,-1632,795,286
266555,-1542,754,266
266595,-1530,762,170
266635,-1512,851,153
266699,-1547,1176,176
266746,-1775,1143,167
266749,-1759,1127,166
266809,-2141,861,167
266861,-1503,523,200
266869,-1416,500,252
266915,-1092,413,223
266956,-996,381,165
266996,-1457,659,140
267036,-1761,857,159
267103,-1795,604,70
267117,-1579,646,102
267156,-1556,646,-32
267196,-1900,985,56
267236,-2108,1013,18
267276,-1932,1163,250
267316,-1602,882,24
267356,-1563,899,113
267429,-1714,860,-89
267436,-1729,864,-112
267480,-1466,935,7
267579,-1144,668,-28
267586,-1090,662,-20
267597,-1020,680,16
267637,-1144,763,-96
267676,-1763,1105,-160
267707,-2676,1644,-118
267787,-1643,622,-39
267796,-1536,519,-29
267827,-1362,566,-27
267867,-1577,1071,78
267908,-1670,1087,26
267957,-1856,924,3
268001,-1693,826,35
268056,-1676,872,-23
268108,-1705,908,-59
268117,-1739,915,-63
268156,-1793,865,-99
268188,-1743,802,-119
268236,-2032,969,13
268307,-1395,760,-57
268317,-1382,844,-51
268356,-1270,1042,5
268396,-1249,1040,-50
268436,-1348,817,-100
268477,-1569,876,-50
268516,-1679,824,-71
268591,-1884,994,33
268599,-1918,951,-17
268657,-1566,758,9
268701,-1548,901,-10
268758,-1583,966,-77
268768,-1587,950,-83
268796,-1516,861,-134
268836,-1557,854,-58
268877,-1876,962,-62
268918,-1856,775,-79
268958,-2060,841,-72
268988,-1990,897,-33
269029,-1494,741,-30
269110,-1543,955,-64
269119,-1533,969,-89
269158,-1647,860,-126
269198,-1671,862,-130
269259,-1680,891,-117
269269,-1681,909,-97
269311,-1682,865,-114
269368,-1668,934,-75
269389,-1657,949,-53
269428,-1658,903,-85
269468,-1649,907,-42
269520,-1660,936,-48
269558,-1648,891,-37
269588,-1636,903,-46
269638,-1662,926,-56
269677,-1677,897,-57
269708,-1668,901,-66
269758,-1662,889,-71
269788,-1680,881,-68
269838,-1656,891,-71
269908,-1659,879,-53
269969,-1672,869,-50
269979,-1664,883,-36
270025,-1665,876,-46
270081,-1661,853,-38
270087,-1656,848,-29
270132,-1664,866,-34
270148,-1671,880,-12
270197,-1665,855,-16
270238,-1661,864,-12
270299,-1674,849,-42
270309,-1688,830,-65
270348,-1656,899,-30
270397,-1670,942,-65
270437,-1672,841,-27
270468,-1638,901,-38
270518,-1679,878,-45
270557,-1663,856,-56
270588,-1655,883,-48
270638,-1651,869,-47
270711,-1682,883,-40
270716,-1687,886,-43
270783,-1682,864,-49
270790,-1680,869,-46
270851,-1689,853,-22
270868,-1675,876,-26
270908,-1664,901,-27
270949,-1672,888,-20
271039,-1668,889,-38
271048,-1664,880,-59
271070,-1685,890,-66
271108,-1670,882,-74
271149,-1680,872,-82
271214,-1664,847,-70
271229,-1673,849,-61
271268,-1655,874,-40
271308,-1662,823,-80
271348,-1675,910,-63
271388,-1680,844,-69
271428,-1683,874,-64
271500,-1653,853,-78
271510,-1648,843,-88
271549,-1661,883,-80
271588,-1695,891,-75
271628,-1660,867,-71
271668,-1675,887,-59
271714,-1681,836,-40
271761,-1697,909,-26
271819,-1679,888,-53
271859,-1671,897,-67
271870,-1678,887,-77
271959,-1663,889,-113
271969,-1655,886,-126
271988,-1652,897,-135
272028,-1667,885,-130
272069,-1681,864,-106
272108,-1731,815,-75
272149,-1704,799,-75
272188,-1667,927,-36
272228,-1656,912,-62
272303,-1674,877,-106
272310,-1671,875,-110
272348,-1674,923,-128
272388,-1655,890,-143
272428,-1677,895,-129
272468,-1681,840,-143
272555,-1625,908,-115
272569,-1661,883,-98
272611,-1653,850,-100
272629,-1665,873,-82
272669,-1669,891,-73
272750,-1684,881,-82
272762,-1676,876,-73
272789,-1680,887,-76
272829,-1661,885,-98
272869,-1670,881,-98
272909,-1664,883,-87
272950,-1655,887,-105
272990,-1661,879,-109
273029,-1665,875,-107
273100,-1648,873,-108
273112,-1664,859,-104
273164,-1671,896,-88
273221,-1669,883,-83
273272,-1674,899,-85
273279,-1675,898,-117
273309,-1671,869,-97
273350,-1644,863,-104
273389,-1658,848,-91
273430,-1661,898,-112
273500,-1679,883,-100
273510,-1675,877,-95
273549,-1704,884,-86
273589,-1683,879,-89
273630,-1660,884,-76
273669,-1663,887,-93
273710,-1673,888,-94
273749,-1655,900,-103
273821,-1647,884,-84
273865,-1672,868,-74
273873,-1673,879,-107
273922,-1671,878,-90
273993,-1663,897,-98
274000,-1667,895,-96
274029,-1680,873,-112
274070,-1657,881,-82
274109,-1662,877,-89
274150,-1674,880,-106
274189,-1673,882,-78
274230,-1662,880,-116
274294,-1677,867,-89
274350,-1672,879,-84
274360,-1668,873,-97
274390,-1668,877,-81
274431,-1657,879,-76
274470,-1654,891,-89
274542,-1690,906,-94
274551,-1679,898,-86
274602,-1647,862,-122
274653,-1685,888,-102
274704,-1680,877,-104
274711,-1661,871,-114
274751,-1671,883,-111
274790,-1680,865,-95
274830,-1674,896,-117
274870,-1682,876,-122
274910,-1688,872,-130
274950,-1673,881,-115
274990,-1663,892,-113
275031,-1686,885,-111
275101,-1685,882,-107
275111,-1672,881,-107
275150,-1669,877,-101
275190,-1673,883,-96
275231,-1675,889,-106
275301,-1667,887,-108
275310,-1673,886,-126
275351,-1677,902,-121
275390,-1665,897,-104
275432,-1673,892,-120
275475,-1659,893,-117
275532,-1661,881,-116
275673,-1675,865,-118
275683,-1679,870,-139
275730,-1675,906,-112
275740,-1672,897,-126
275750,-1667,888,-114
275760,-1661,893,-98
275790,-1664,900,-115
275830,-1652,901,-129
275911,-1674,903,-119
275920,-1676,891,-110
275951,-1678,867,-101
275991,-1677,876,-97
276032,-1672,880,-98
276071,-1664,895,-128
276112,-1661,892,-126
276151,-1671,897,-135
276191,-1652,903,-123
276272,-1677,870,-116
276316,-1678,881,-99
276321,-1679,891,-99
276372,-1655,874,-89
276421,-1683,876,-104
276431,-1689,871,-116
276471,-1683,892,-112
276511,-1685,878,-92
276552,-1672,860,-90
276592,-1665,854,-109
276631,-1650,873,-106
276702,-1669,877,-133
276711,-1669,875,-116
276751,-1656,891,-121
276792,-1650,876,-127
276831,-1685,890,-107
276872,-1664,882,-106
276911,-1669,882,-84
276964,-1674,884,-77
277053,-1667,875,-91
277056,-1669,884,-80
277154,-1674,881,-103
277162,-1687,861,-133
277171,-1674,869,-97
277191,-1664,879,-87
277231,-1678,885,-120
277271,-1675,857,-118
277311,-1680,887,-107
277351,-1678,868,-112
277392,-1668,870,-115
277431,-1664,881,-115
277492,-1659,886,-96
277512,-1691,877,-87
277552,-1671,872,-128
277592,-1671,878,-102
277631,-1674,872,-116
277696,-1679,870,-108
277736,-1669,879,-105
277753,-1673,890,-115
277803,-1687,884,-107
277832,-1680,880,-108
277902,-1668,863,-101
277912,-1665,852,-112
277952,-1688,878,-112
277992,-1691,877,-113
278032,-1676,864,-93
278072,-1671,899,-95
278112,-1667,879,-92
278152,-1670,886,-116
278192,-1658,882,-107
278232,-1665,874,-124
278297,-1674,876,-108
278396,-1679,861,-120
278404,-1682,871,-98
278463,-1674,861,-106
278472,-1672,858,-122
278483,-1667,859,-104
278512,-1684,870,-110
278552,-1681,865,-110
278592,-1666,886,-119
278632,-1663,868,-107
278703,-1655,874,-124
278712,-1662,887,-103
278752,-1670,866,-122
278792,-1676,866,-98
278832,-1683,885,-108
278872,-1674,879,-120
278913,-1679,882,-110
278952,-1678,873,-125
279007,-1671,872,-109
279044,-1677,874,-115
279109,-1668,872,-122
279123,-1683,883,-106
279153,-1675,876,-107
279192,-1682,872,-123
279232,-1680,876,-119
279273,-1674,871,-106
279323,-1675,871,-98
279352,-1673,878,-104
279392,-1691,872,-102
279433,-1690,873,-113
279473,-1679,886,-128
279546,-1697,870,-116
279588,-1688,877,-104
279595,-1697,871,-118
279643,-1659,887,-115
279673,-1686,866,-124
279713,-1679,846,-111
279753,-1668,873,-112
279793,-1672,857,-124
279833,-1686,858,-116
279899,-1674,867,-114
279914,-1679,860,-113
279953,-1686,857,-108
279993,-1670,870,-115
280034,-1681,866,-123
280074,-1671,865,-114
280143,-1670,877,-110
280194,-1682,875,-112
280239,-1673,875,-105
280244,-1671,865,-118
280293,-1674,878,-127
280346,-1688,867,-116
280354,-1686,875,-106
280393,-1686,873,-152
280433,-1676,858,-124
280473,-1681,863,-130
280513,-1698,872,-137
280553,-1680,868,-118
280593,-1683,884,-108
280633,-1672,836,-134
280705,-1661,861,-152
280713,-1680,858,-128
280753,-1668,872,-133
280828,-1664,877,-135
280838,-1661,873,-138
280879,-1689,875,-142
280928,-1675,882,-144
280953,-1684,874,-118
280993,-1697,848,-107
281033,-1676,857,-115
281104,-1690,881,-128
281113,-1694,861,-141
281153,-1684,880,-116
281193,-1681,883,-120
281233,-1679,864,-143
281274,-1682,858,-130
281313,-1684,859,-127
281353,-1672,850,-125
281393,-1700,859,-123
281433,-1691,844,-117
281484,-1680,867,-126
281537,-1667,859,-136
281586,-1667,871,-124
281595,-1660,858,-109
281646,-1677,851,-131
281674,-1667,872,-138
281714,-1672,874,-137
281754,-1683,863,-139
281794,-1679,856,-129
281834,-1690,883,-124
281906,-1692,858,-124
281914,-1685,852,-112
281954,-1692,869,-129
281994,-1672,887,-112
282034,-1686,878,-139
282074,-1658,876,-128
282114,-1677,868,-121
282190,-1672,869,-123
282196,-1673,862,-142
282256,-1694,870,-140
282308,-1680,859,-113
282316,-1687,856,-121
282366,-1680,855,-117
282394,-1675,861,-123
282434,-1687,854,-121
282474,-1683,861,-124
282514,-1683,870,-133
282554,-1669,854,-138
282594,-1675,864,-120
282634,-1666,861,-117
282698,-1684,878,-125
282714,-1682,856,-99
282754,-1683,870,-130
282794,-1682,861,-114
282834,-1686,831,-129
282893,-1689,844,-126
282908,-1669,841,-123
282966,-1689,867,-137
283025,-1687,880,-133
283034,-1689,874,-131
283085,-1686,850,-122
283115,-1692,851,-118
283154,-1676,854,-124
283227,-1687,857,-131
283235,-1697,871,-115
283275,-1676,870,-128
283316,-1683,875,-140
283354,-1673,877,-128
283429,-1684,868,-122
283438,-1684,864,-126
283475,-1681,879,-114
283515,-1675,853,-133
283555,-1680,861,-129
283599,-1673,877,-124
283635,-1660,865,-120
283675,-1669,854,-124
283715,-1693,881,-125
283755,-1676,875,-130
283795,-1688,863,-125
283835,-1686,858,-113
283897,-1670,851,-130
283938,-1680,846,-124
283948,-1681,856,-121
284008,-1668,870,-122
284098,-1679,869,-111
284108,-1680,873,-110
284120,-1698,851,-120
284165,-1683,869,-120
284195,-1686,852,-109
284235,-1650,865,-128
284316,-1671,873,-138
284325,-1663,863,-139
284355,-1671,869,-122
284395,-1687,872,-131
284435,-1672,858,-107
284475,-1673,848,-131
284515,-1676,860,-113
284555,-1681,857,-97
284595,-1678,863,-98
284635,-1681,850,-122
284707,-1663,866,-117
284758,-1673,866,-136
284817,-1668,880,-128
284869,-1679,860,-124
284910,-1688,859,-127
284921,-1692,865,-135
284925,-1711,873,-126
284955,-1673,861,-121
284995,-1676,837,-130
285035,-1684,860,-129
285109,-1677,879,-137
285126,-1674,872,-124
285156,-1688,880,-134
285196,-1691,898,-126
285236,-1676,880,-127
285276,-1668,873,-117
285316,-1696,860,-116
285356,-1698,849,-128
285396,-1686,871,-120
285461,-1681,880,-128
285503,-1686,875,-116
285552,-1673,870,-132
285557,-1683,875,-137
285618,-1686,865,-132
285636,-1683,869,-124
285676,-1672,869,-139
285716,-1670,859,-126
285756,-1682,857,-129
285796,-1679,857,-137
285836,-1687,868,-141
285907,-1668,841,-133
285917,-1684,860,-124
285956,-1679,865,-127
285996,-1662,867,-128
286036,-1698,867,-120
286076,-1673,846,-133
286117,-1685,865,-131
286160,-1686,835,-140
286218,-1695,874,-133
286270,-1680,858,-128
286277,-1670,848,-127
286327,-1697,854,-138
286356,-1676,872,-133
286396,-1686,866,-117
286437,-1695,854,-122
286476,-1691,860,-109
286516,-1683,854,-118
286557,-1684,864,-119
286597,-1679,862,-131
286636,-1669,860,-136
286708,-1681,867,-134
286718,-1685,844,-141
286756,-1696,852,-135
286797,-1685,857,-128
286870,-1698,861,-114
286910,-1677,856,-134
286920,-1678,861,-134
