elapsed_ms,ax,ay,az
47338,-1764,475,277
47378,-1751,502,261
47418,-1766,481,278
47458,-1756,485,277
47498,-1765,490,291
47538,-1770,471,283
47578,-1754,480,291
47618,-1756,488,282
47658,-1760,471,268
47698,-1768,483,265
47738,-1767,487,288
47778,-1770,465,305
47818,-1776,492,268
47931,-1787,489,269
47938,-1766,506,261
47948,-1769,508,286
47978,-1758,419,302
48018,-1753,406,332
48058,-1757,490,333
48098,-1747,599,375
48139,-1802,462,378
48179,-1823,308,304
48218,-1931,449,458
48259,-2001,639,334
48299,-1956,387,257
48339,-1857,509,303
48379,-1809,625,301
48419,-1767,778,313
48471,-1727,727,390
48513,-1478,1310,489
48551,-1433,1190,554
48579,-1318,1250,590
48619,-1012,1545,492
48659,-1074,1267,572
48699,-853,1526,493
48739,-997,1168,655
48779,-976,1260,807
48819,-740,1128,756
48859,-862,1156,947
48899,-675,1235,860
48939,-756,1246,1009
48979,-736,1401,1049
49019,-671,1445,1031
49059,-700,1645,1134
49104,-524,1341,1083
49139,-459,1338,1116
49196,-303,1349,1055
49219,-288,1173,1054
49259,-317,1204,1179
49299,-259,1131,1159
49339,-253,1073,1080
49380,-261,1254,1049
49419,-232,1429,1044
49462,-248,1618,1036
49499,-228,1245,1065
49539,-222,1402,1049
49579,-200,1635,965
49619,-171,1566,895
49659,-263,1586,874
49699,-372,1519,866
49743,-392,1129,774
49802,-733,1629,932
49854,-807,1294,931
49861,-860,1373,1024
49899,-906,1491,1039
49939,-805,1350,1012
49979,-792,1401,1099
50019,-685,1243,1155
50059,-760,1440,1019
50099,-803,1331,938
50140,-923,1365,851
50179,-993,1725,816
50219,-978,1483,587
50259,-1098,1353,567
50299,-1211,941,505
50340,-1208,963,558
50401,-1071,1014,689
50462,-1317,758,999
50470,-1428,721,1081
50513,-1508,433,1051
50539,-1568,431,1016
50590,-1656,854,895
50619,-1560,1013,905
50659,-1404,1076,911
50699,-1481,951,883
50740,-1434,770,777
50781,-1462,823,695
50821,-1429,901,574
50861,-1385,755,538
50901,-1764,-322,801
50941,-1694,955,776
50990,-1587,634,624
51020,-1586,1001,570
51072,-1296,934,367
51112,-1260,1046,450
51164,-1328,933,431
51214,-1728,775,676
51220,-1695,859,630
51270,-1623,851,493
51300,-1580,834,447
51341,-1577,789,514
51391,-1596,712,425
51420,-1620,711,387
51460,-1614,752,406
51500,-1603,804,409
51540,-1593,770,432
51580,-1619,746,452
51620,-1629,725,388
51660,-1608,778,419
51700,-1642,720,399
51740,-1621,734,410
51813,-1639,689,361
51817,-1640,706,372
51871,-1631,733,411
51923,-1627,754,401
51940,-1627,762,401
51980,-1626,757,387
52020,-1618,781,385
52060,-1642,749,394
52100,-1629,789,395
52141,-1627,735,407
52185,-1629,716,378
52221,-1618,765,377
52293,-1620,785,372
52300,-1613,776,379
52340,-1610,769,401
52382,-1618,808,386
52420,-1618,789,402
52463,-1611,771,389
52520,-1631,794,378
52561,-1601,832,419
52612,-1621,802,397
52621,-1608,781,396
52661,-1618,770,385
52700,-1627,769,381
52741,-1600,859,427
52780,-1623,792,394
52821,-1632,704,367
52860,-1623,791,384
52900,-1600,821,390
52941,-1618,771,377
52985,-1627,792,375
53020,-1626,787,384
53062,-1639,764,391
53114,-1620,744,358
53166,-1627,777,374
53221,-1630,788,364
53231,-1617,778,376
53261,-1635,766,363
53301,-1631,778,386
53341,-1643,764,372
53387,-1629,788,372
53421,-1625,728,378
53461,-1643,769,364
53501,-1639,759,358
53541,-1640,780,362
53582,-1632,765,353
53621,-1622,749,390
53661,-1634,749,372
53701,-1643,774,383
53763,-1624,745,364
53774,-1627,750,356
53822,-1632,743,372
53866,-1646,746,354
53925,-1627,778,358
53941,-1633,737,375
53981,-1630,754,381
54022,-1630,725,384
54061,-1644,792,367
54102,-1631,759,365
54141,-1627,752,366
54185,-1633,746,351
54222,-1621,768,364
54262,-1621,770,379
54301,-1630,759,365
54341,-1628,764,373
54381,-1640,764,368
54421,-1620,776,368
54473,-1624,747,367
54542,-1641,762,341
54583,-1636,777,358
54592,-1642,757,384
54621,-1642,739,368
54661,-1630,764,365
54723,-1649,760,357
54742,-1668,730,334
54782,-1606,902,366
54822,-1654,781,395
54861,-1674,639,332
54901,-1666,734,366
54941,-1681,642,387
54981,-1660,593,412
55021,-1714,546,408
55086,-1688,540,403
55101,-1700,557,400
55144,-1716,481,424
55204,-1720,495,391
55214,-1711,475,380
55266,-1717,507,431
55313,-1734,513,407
55362,-1718,563,400
55382,-1708,529,381
55413,-1714,485,393
55463,-1710,518,387
55507,-1712,483,400
55543,-1731,472,379
55582,-1731,496,376
55623,-1716,471,388
55653,-1718,514,378
55702,-1745,448,407
55743,-1717,573,365
55783,-1720,567,397
55823,-1729,524,391
55894,-1721,444,375
55939,-1721,513,414
55943,-1710,538,397
56038,-1728,532,389
56092,-1715,557,374
56102,-1755,487,326
56112,-1691,449,360
56143,-1713,519,361
56182,-1702,611,360
56223,-1727,470,369
56294,-1709,538,400
56302,-1705,537,399
56343,-1720,480,381
56373,-1710,531,358
56422,-1706,545,378
56453,-1689,516,397
56502,-1705,586,351
56543,-1687,647,380
56583,-1695,623,414
56622,-1684,569,430
56706,-1641,687,451
56711,-1652,661,447
56732,-1656,663,460
56772,-1660,640,451
56853,-1674,608,373
56862,-1702,617,358
56894,-1691,608,372
56932,-1648,633,443
56973,-1661,620,425
57014,-1660,660,423
57053,-1665,643,461
57093,-1650,648,459
57133,-1652,696,425
57183,-1685,615,430
57213,-1677,607,433
57263,-1650,605,423
57303,-1658,593,462
57343,-1689,621,384
57382,-1677,671,348
57413,-1655,759,363
57493,-1653,626,421
57503,-1665,664,422
57564,-1651,661,406
57606,-1673,653,412
57646,-1649,682,412
57656,-1656,693,433
57692,-1671,685,416
57732,-1672,563,412
57784,-1650,630,437
57814,-1648,646,475
57877,-1659,534,466
57893,-1689,509,441
57933,-1685,580,449
57973,-1665,602,421
58014,-1677,630,406
58053,-1661,714,446
58093,-1695,514,419
58133,-1721,537,413
58204,-1681,614,452
58246,-1682,571,436
58254,-1689,509,467
58297,-1666,511,435
58355,-1676,558,451
58374,-1684,578,426
58413,-1688,583,433
58453,-1676,581,440
58493,-1656,603,483
58533,-1669,552,519
58574,-1655,629,480
58614,-1651,615,465
58686,-1655,573,499
58693,-1649,591,504
58734,-1664,527,519
58774,-1653,634,497
58813,-1668,565,490
58854,-1673,595,457
58948,-1663,613,479
58958,-1666,597,461
59005,-1666,567,513
59015,-1658,624,494
59053,-1667,591,451
59107,-1651,577,473
59134,-1679,574,463
59173,-1678,592,450
59213,-1678,580,415
59253,-1654,686,503
59293,-1654,616,494
59333,-1655,572,444
59373,-1686,545,430
59413,-1675,579,405
59484,-1658,723,405
59494,-1639,713,387
59577,-1630,711,437
59626,-1620,778,449
59666,-1617,768,435
59667,-1624,731,389
59719,-1619,812,332
59773,-1596,845,363
59793,-1601,877,322
59813,-1574,907,347
59853,-1558,868,345
59924,-1564,972,280
59934,-1547,1015,275
59973,-1532,986,301
60013,-1536,881,369
60053,-1542,1003,343
60093,-1537,964,335
60134,-1549,1029,323
60174,-1556,980,274
60214,-1548,1022,253
60279,-1566,878,261
60327,-1561,971,326
60336,-1558,968,326
60378,-1572,913,301
60424,-1611,888,221
60454,-1610,816,254
60494,-1599,889,258
60534,-1614,879,266
60574,-1595,958,253
60614,-1629,835,239
60686,-1614,882,303
60694,-1605,880,297
60734,-1588,851,283
60774,-1654,776,254
60814,-1595,808,304
60854,-1620,827,290
60894,-1630,859,288
60966,-1615,840,331
60974,-1620,833,337
61017,-1632,810,321
61065,-1611,805,342
61094,-1616,823,357
61135,-1609,902,348
61215,-1601,716,412
61224,-1598,657,415
61255,-1641,658,406
61295,-1639,731,375
61369,-1585,820,441
61376,-1575,802,446
61414,-1605,779,489
61464,-1640,780,459
61494,-1660,739,495
61534,-1629,696,479
61574,-1623,703,452
61617,-1624,677,490
61654,-1603,722,444
61694,-1589,780,461
61734,-1689,788,536
61774,-1571,793,561
61814,-1589,845,588
61876,-1586,726,677
61915,-1530,808,566
61969,-1442,833,577
61986,-1412,713,566
62036,-1457,895,403
62054,-1447,884,354
62094,-1488,1008,360
62134,-1451,1187,426
62174,-1586,1132,667
62215,-1503,842,851
62280,-1483,776,944
62296,-1436,858,936
62336,-1312,1152,837
62375,-1438,1120,684
62415,-1389,1333,548
62455,-1478,1369,681
62495,-1551,1288,921
62535,-1162,870,826
62576,-717,676,658
62646,-718,1094,429
62688,-873,1491,207
62697,-878,1654,207
62748,-1024,1300,175
62776,-994,1515,175
62815,-795,1286,56
62856,-630,1555,-19
62895,-748,1701,-53
62935,-892,1544,-74
62975,-1088,2226,-214
63015,-1344,2812,-351
63081,-974,1657,-446
63096,-1049,1734,-386
63135,-1164,1444,-496
63175,-1286,1674,-679
63215,-1222,1554,-564
63255,-1293,1469,-317
63308,-1241,1342,-350
63377,-1163,1564,-358
63388,-1162,1541,-372
63437,-1137,1195,-296
63455,-1221,1115,-229
63527,-1296,1073,-580
63537,-1280,1138,-697
63576,-1168,1558,-791
63615,-1104,1549,-722
63655,-1070,1520,-685
63695,-968,1777,-736
63735,-853,1514,-797
63775,-966,1393,-906
63815,-928,1943,-1112
63881,-670,1629,-1096
63897,-709,1758,-1062
63935,-729,1637,-938
64001,-561,1962,-1258
64097,-734,1538,-1092
64107,-701,1551,-1098
64146,-683,1829,-1119
64190,-742,1596,-1149
64198,-744,1632,-1146
64246,-703,1676,-1152
64255,-694,1654,-1138
64295,-700,1743,-1149
64340,-706,1605,-1004
64375,-664,1640,-1146
64415,-768,1675,-1094
64456,-730,1546,-942
64496,-870,1403,-961
64536,-834,1594,-1153
64577,-847,1519,-1145
64616,-860,1642,-1035
64688,-733,1567,-937
64696,-734,1594,-960
64736,-830,1621,-986
64838,-801,1348,-1051
64885,-649,1617,-1019
64897,-645,1680,-1046
64906,-634,1747,-1071
64937,-544,1736,-936
64976,-233,1672,-960
65016,-206,2000,-1090
65088,-447,1799,-1011
65097,-407,1734,-972
65136,-47,1888,-1160
65176,141,1869,-918
65216,225,1629,-560
65257,462,2274,-617
65296,481,2174,-699
65336,498,1422,-750
65377,429,2652,-738
65416,370,1737,-935
65468,339,2145,-1066
65509,401,2115,-970
65566,678,2101,-284
65578,744,1787,-175
65616,453,1322,-103
65656,312,2200,-153
65726,379,1974,-262
65737,376,1856,-160
65777,433,1922,179
65816,327,1972,45
65877,188,1813,85
65896,69,1896,28
65937,49,2261,-45
65977,29,1873,114
66017,56,1922,299
66057,227,2069,176
66097,515,1894,130
66137,664,1970,27
66177,671,2097,-51
66216,511,2145,-88
66282,436,2185,53
66297,388,2172,91
66337,619,1988,225
66380,742,1862,151
66428,1037,1895,236
66469,1066,2047,96
66496,1154,2278,292
66536,1176,2111,398
66576,1166,2250,432
66616,1003,2098,453
66679,953,1849,482
66697,947,1702,454
66736,883,1723,372
66776,946,1684,520
66816,837,1428,560
66856,853,1446,753
66896,920,1454,820
66936,810,1108,778
66978,793,965,884
67032,848,684,1019
67080,757,652,986
67117,893,610,1009
67136,757,379,1018
67189,1042,370,938
67218,1058,627,934
67258,1066,141,929
67298,1036,695,856
67338,1047,552,835
67378,1086,1035,931
67418,907,779,1037
67482,834,1350,1117
67499,819,1324,1072
67536,849,1607,1105
67578,856,1809,1059
67617,846,1825,1096
67657,782,1683,929
67697,560,2072,797
67749,170,2328,673
67798,-63,2592,567
67859,-178,2680,486
67869,-218,3043,579
67946,190,1140,771
67951,244,1080,839
67977,374,1422,974
68018,387,1733,988
68057,272,1741,920
68097,165,977,828
68137,130,682,819
68177,122,304,969
68217,379,313,1254
68282,853,205,1867
68299,1061,315,1915
68337,1327,1144,1877
68377,1336,739,1626
68417,1305,1060,1603
68457,1133,1034,1566
68498,1016,995,1463
68560,750,1099,1353
68610,889,801,1381
68619,854,748,1516
68658,1070,682,1194
68709,1061,595,1311
68737,1074,297,1235
68777,1161,796,1227
68817,1201,982,1200
68857,1136,821,1180
68897,989,823,1083
68937,753,1434,1023
68977,588,1236,1035
69017,453,1162,1153
69080,777,950,1149
69099,846,974,1083
69137,1264,1427,1033
69201,1134,1715,884
69253,2664,2750,1121
69292,745,905,851
69301,810,1176,794
69337,839,1750,721
69377,1020,1114,701
69417,1038,1621,510
69489,948,1653,406
69499,915,1694,397
69538,847,2025,314
69578,879,2064,136
69618,1014,2306,155
69658,835,1871,173
69698,730,1652,338
69738,696,1720,526
69779,657,1753,613
69844,729,1460,823
69893,679,1387,941
69899,613,1327,1007
69954,618,1798,984
70002,490,1540,806
70018,570,1573,767
70059,614,1676,789
70099,559,1767,823
70139,499,1505,794
70179,530,1829,771
70218,521,1840,828
70289,485,1743,702
70298,484,1755,683
70338,517,1766,733
70379,497,1720,808
70439,532,1708,760
70458,517,1679,753
70498,508,1668,805
70540,511,1717,783
70611,465,1711,706
70619,548,1695,734
70680,512,1745,741
70739,522,1715,774
70748,512,1701,765
70819,504,1696,767
70828,540,1712,780
70858,504,1714,752
70898,517,1701,726
70938,518,1747,730
70978,517,1728,753
71018,495,1675,766
71084,484,1751,713
71101,539,1792,710
71138,513,1757,712
71178,497,1701,763
71219,499,1716,760
71289,522,1715,727
71302,508,1727,753
71351,500,1700,728
71411,488,1719,763
71421,500,1739,747
71458,521,1727,735
71503,502,1716,716
71538,506,1702,713
71579,489,1713,746
71618,515,1718,732
71658,508,1753,719
71698,503,1732,690
71738,485,1748,734
71778,496,1715,716
71818,508,1722,717
71890,489,1709,712
71898,494,1715,717
71969,473,1707,714
72013,501,1746,731
72053,504,1736,723
72063,500,1721,722
72120,490,1743,728
72162,495,1735,730
72211,493,1712,721
72220,499,1728,714
72260,501,1747,698
72311,495,1733,729
72339,498,1709,716
72379,501,1751,707
72419,492,1715,707
72459,491,1759,717
72499,480,1710,714
72539,479,1707,745
72579,494,1733,731
72619,495,1727,735
72683,499,1721,731
72701,487,1706,711
72830,503,1747,716
72832,501,1746,716
72839,477,1737,705
72859,486,1720,733
72899,488,1739,741
72939,499,1703,711
72979,481,1750,721
73019,504,1743,722
73083,494,1713,726
73100,494,1693,738
73139,506,1723,732
73179,478,1731,712
73219,505,1744,706
73259,506,1725,728
73299,503,1736,703
73339,506,1730,721
73432,502,1700,723
73472,490,1763,734
73476,499,1749,710
73522,500,1755,757
73542,492,1707,704
73579,492,1781,721
73619,496,1726,723
73660,504,1730,707
73699,498,1722,708
73739,496,1761,727
73779,496,1736,720
73819,487,1716,692
73885,489,1723,726
73900,503,1711,709
73939,499,1722,710
73979,494,1749,742
74019,510,1734,701
74073,501,1711,723
74109,490,1752,727
74172,489,1743,713
74179,495,1740,718
74219,490,1720,700
74259,503,1751,706
74309,488,1723,711
74340,494,1743,705
74379,490,1726,699
74421,501,1715,703
74460,494,1746,724
74500,505,1730,700
74541,497,1714,698
74580,501,1736,733
74620,520,1714,727
74684,509,1715,736
74729,497,1757,686
74734,501,1754,697
74781,496,1746,663
74821,492,1726,706
74872,509,1719,708
74900,503,1764,711
74941,483,1711,705
74981,513,1734,727
75022,496,1739,722
75082,491,1730,729
75120,509,1729,728
75141,500,1716,706
75181,482,1760,706
75221,489,1737,717
75260,501,1722,725
75301,507,1745,717
75340,499,1738,721
75380,491,1718,701
75421,492,1757,710
75484,499,1718,714
75502,498,1720,718
75540,498,1758,720
75580,496,1759,710
75621,494,1712,731
75692,514,1747,703
75742,485,1750,712
75754,506,1723,712
75792,494,1748,713
75813,484,1714,711
75895,481,1730,703
75902,487,1752,706
75940,496,1738,717
75981,491,1727,707
76020,491,1746,702
76060,481,1733,721
76100,484,1737,722
76141,498,1727,709
76181,495,1739,710
76220,486,1735,701
76284,490,1737,708
76302,497,1735,708
76356,501,1746,727
76413,497,1728,718
76421,489,1740,700
76495,505,1737,723
76505,500,1737,741
76552,501,1720,711
76580,497,1744,713
76621,497,1724,727
76697,503,1728,699
76702,499,1733,715
76741,487,1714,703
76780,499,1760,713
76821,495,1727,694
76860,500,1709,732
76902,490,1739,703
76941,509,1724,705
76981,497,1753,710
77021,503,1725,731
77093,508,1727,694
77136,499,1725,712
77145,506,1730,706
77206,497,1751,717
77254,509,1727,697
77261,493,1733,722
77302,500,1721,699
77342,478,1738,718
77382,512,1733,728
77422,492,1720,708
77487,514,1752,703
77502,508,1735,720
77542,495,1715,732
77581,502,1742,694
77622,493,1741,695
77662,501,1751,700
77702,498,1713,702
77741,505,1740,700
77796,489,1724,701
77888,496,1719,696
77902,491,1746,704
77904,484,1733,703
77965,497,1730,705
77972,486,1728,698
78021,501,1731,691
78062,502,1730,719
78102,510,1747,689
78142,496,1737,702
78182,498,1744,692
78222,502,1736,716
78293,500,1729,708
78301,498,1740,700
78342,512,1754,708
78381,515,1767,706
78421,488,1697,737
78461,477,1783,746
78514,521,1645,731
78567,519,1670,768
78578,517,1747,784
78635,544,1708,782
78661,556,1776,745
78715,554,1804,796
78733,572,1734,819
78781,597,1747,829
78821,624,1634,794
78861,676,1640,796
78901,738,1564,799
78941,779,1622,774
78981,834,1564,777
79021,885,1641,661
79085,987,1706,527
79133,1017,1654,471
79134,1085,1555,429
79194,1133,1594,455
79254,1159,1624,453
79261,1151,1575,431
79302,1197,1548,443
79342,1231,1595,466
79404,1281,1506,459
79422,1297,1494,467
79452,1320,1550,440
79492,1352,1468,459
79552,1418,1364,521
79596,1418,1354,467
79613,1591,1402,459
79661,1441,1453,534
79701,1401,1280,617
79741,1446,1104,739
79781,1429,784,932
79822,1431,500,1031
79885,1475,558,1243
79893,1407,537,1129
79942,1388,699,1198
79982,1480,566,1197
80022,1495,607,1194
80062,1524,553,1156
80102,1526,458,1128
80153,1559,485,1076
80174,1567,587,1086
80216,1589,555,1062
80287,1583,663,1067
80292,1568,712,1082
80373,1540,489,1143
80382,1537,455,1123
80422,1560,588,1120
80462,1582,587,1068
80502,1571,589,1086
80542,1570,550,1110
80582,1555,584,1113
80622,1526,574,1146
80694,1537,578,1116
80703,1554,562,1120
80742,1556,531,1113
80782,1575,601,1102
80822,1544,562,1111
80862,1539,544,1136
80914,1559,621,1120
80963,1552,545,1125
81007,1540,579,1110
81017,1543,580,1118
81112,1533,570,1140
81165,1529,566,1127
81172,1524,592,1123
81192,1544,581,1126
81222,1549,546,1113
81262,1549,555,1108
81302,1560,551,1119
81342,1541,557,1153
81382,1506,562,1127
81422,1535,542,1117
81493,1544,606,1118
81502,1537,624,1130
81542,1517,568,1141
81582,1543,556,1133
81622,1532,537,1144
81662,1527,582,1148
81748,1530,538,1124
81757,1540,532,1126
81803,1540,582,1127
81822,1545,544,1125
81863,1543,610,1130
81904,1510,579,1158
81933,1509,568,1152
81982,1535,582,1152
82022,1527,554,1138
82053,1543,546,1142
82102,1540,570,1127
82133,1540,554,1127
82182,1526,561,1167
82213,1534,553,1157
82283,1531,580,1147
82293,1547,568,1154
82347,1519,542,1120
82388,1525,567,1125
82438,1533,538,1151
82453,1542,526,1139
82502,1528,544,1143
82533,1525,529,1159
82582,1532,580,1165
82622,1540,525,1158
82684,1534,542,1135
82694,1524,519,1114
82734,1532,511,1152
82773,1539,514,1150
82814,1514,547,1155
82853,1482,588,1192
82894,1506,422,1178
82933,1508,416,1101
82986,1536,641,1038
83035,1500,882,1012
83075,1459,849,1058
83125,1421,930,1090
83135,1396,919,1105
83173,1406,890,1061
83214,1372,694,1077
83253,1373,919,936
83294,1375,941,905
83333,1367,1084,741
83374,1305,1753,757
83413,1241,1598,687
83475,1270,1727,758
83493,1229,1673,711
83533,1288,971,783
83573,1252,932,984
83614,1253,1246,925
83676,1143,1353,909
83726,1197,1457,898
83736,1060,1432,901
83785,1125,1239,936
83813,1099,1204,949
83855,1032,1364,1076
83894,1012,1019,1053
83945,971,1611,926
83973,1073,1581,849
84014,1051,1626,791
84055,1046,1508,722
84094,1057,1611,700
84134,1067,1564,663
84174,1097,1695,607
84214,1128,1454,640
84254,1106,1520,695
84294,994,1346,830
84344,1042,1416,836
84374,1106,1701,808
84414,1046,1334,870
84454,1073,1533,917
84494,1055,1164,1019
84534,1027,1172,1038
84597,1055,1020,1124
84650,1050,1312,1078
84654,1051,1390,1085
84699,1071,1334,1099
84744,1033,993,1179
84797,1087,1207,1113
84853,1077,1172,1089
84863,1069,1207,1090
84894,1079,1275,1084
84933,1066,1211,1098
84973,1061,1092,1167
85013,1055,1056,1137
85077,1061,1117,1132
85093,1051,1145,1125
85133,1004,1093,1111
85173,1018,1200,1208
85213,914,1190,1259
85253,938,1126,1221
85293,943,1297,1166
85335,987,1122,1222
85396,974,1305,1171
85480,928,1231,1199
85534,963,1381,1137
85544,973,1277,1129
85554,985,1135,1114
85575,1020,1394,1146
85615,1000,1320,1073
85655,998,1125,1294
85695,916,733,1326
85735,934,902,1372
85775,951,1010,1401
85815,954,972,1365
85886,947,797,1329
85894,966,756,1344
85935,946,858,1450
85974,951,994,1410
86015,938,836,1378
86079,912,844,1496
86135,907,875,1436
86176,894,864,1487
86184,871,845,1476
86214,892,806,1471
86254,871,720,1519
86325,922,941,1470
86334,911,761,1459
86374,899,262,1229
86414,936,1431,993
86454,983,1796,801
86494,981,1749,686
86534,1011,1599,505
86574,1032,1879,399
86614,1069,1599,344
86678,1059,1664,177
86726,1091,1713,82
86735,1076,1692,34
86785,1064,1845,-87
86841,1042,1818,-199
86854,1039,1741,-238
86894,1092,1836,-364
86934,1084,1820,-424
86974,1054,1861,-459
87014,1057,1881,-470
87087,1074,1817,-479
87095,1053,1679,-406
87134,1069,1900,-424
87174,1104,2095,-420
87215,1007,1410,-117
87254,1087,1982,-156
87295,1021,1509,24
87335,1024,1936,-5
87397,1001,1690,104
87457,1000,1871,98
87505,991,1850,98
87556,992,1522,226
87566,1020,1480,245
87575,1020,1451,248
87614,1022,1778,180
87654,995,1707,201
87695,998,1832,145
87735,1003,1936,90
87775,989,1728,154
87815,1002,1713,146
87880,1006,1721,173
87895,1018,1758,171
87935,1003,1883,152
87975,994,1677,202
88015,995,1787,182
88055,996,1797,191
88117,1003,1756,170
88166,1006,1821,196
88177,992,1865,225
88238,939,1897,392
88255,910,1996,459
88306,829,1906,666
88336,797,1436,838
88375,821,1461,966
88415,888,1099,1041
88457,836,977,1099
88495,887,1138,880
88535,997,1341,752
88576,1060,1628,492
88615,1130,1725,421
88655,1258,1658,432
88695,1279,1707,539
88735,1254,1365,708
88820,1160,1167,954
88827,1145,1197,952
88878,1110,1361,889
88936,1044,1226,707
88977,1024,1206,678
89022,849,1467,746
89035,810,1417,712
89087,715,1424,703
89095,612,1850,777
89170,304,2364,1205
89176,304,2227,1200
89215,283,1796,1046
89255,248,1109,1208
89296,321,912,1203
89335,341,1510,1184
89376,318,945,1388
89415,331,1153,1301
89481,233,1189,1360
89495,260,1116,1320
89535,216,1056,1313
89575,134,1160,1349
89628,-35,1500,1363
89676,20,1448,1243
89721,-3,1769,1381
89735,-40,1525,1113
89775,70,1610,1002
89816,40,1703,965
89882,37,1535,1025
89896,34,1543,1052
89936,22,1564,1029
89985,10,1598,1008
90015,-29,1706,964
90055,23,1659,1069
90096,-14,1560,952
90136,14,1580,969
90176,12,1621,975
90216,10,1608,973
90308,18,1605,976
90316,24,1612,989
90368,27,1600,967
90417,23,1613,974
90426,30,1609,981
90457,19,1606,972
90496,28,1582,966
90536,19,1619,984
90576,38,1607,978
90616,22,1622,976
90682,30,1594,957
90697,24,1602,961
90736,35,1618,973
90776,19,1600,983
90816,25,1624,969
90856,18,1597,969
90896,14,1603,996
90958,28,1595,972
90999,33,1605,988
91046,34,1597,993
91059,27,1601,986
91108,10,1611,963
91136,29,1623,974
91177,28,1601,987
91216,20,1602,985
91256,25,1607,968
91296,23,1608,977
91336,18,1592,986
91376,24,1607,995
91416,26,1612,976
91488,26,1611,982
91496,14,1607,985
91536,27,1618,980
91612,34,1591,987
91617,26,1598,967
91669,20,1609,975
91711,12,1600,972
91736,23,1615,975
91776,26,1599,975
91817,22,1603,986
91880,18,1597,981
91897,16,1608,984
91936,30,1596,985
91976,23,1619,965
92017,28,1592,980
92056,32,1603,990
92097,13,1598,976
92136,34,1608,968
92176,32,1594,962
92216,29,1608,988
92256,26,1611,976
92297,23,1593,981
92353,15,1597,990
92413,28,1613,980
92418,11,1604,970
92456,26,1613,982
92496,34,1609,961
92537,5,1592,974
92577,19,1607,969
92617,19,1619,981
92689,13,1594,989
92697,17,1609,989
92737,21,1593,986
92777,30,1608,982
92817,26,1603,973
92857,18,1604,984
92897,19,1613,984
92972,15,1596,982
92979,19,1610,993
93016,31,1596,981
93058,29,1612,971
93128,20,1606,1005
93137,13,1602,976
93178,20,1617,985
93229,21,1593,999
93271,19,1621,966
93319,17,1607,966
93370,27,1625,984
93409,33,1616,985
93430,26,1604,995
93469,22,1596,956
93497,15,1602,992
93537,8,1609,984
93613,36,1620,979
93630,15,1590,950
93658,12,1602,984
93697,19,1598,986
93737,25,1613,969
93777,11,1607,983
93817,16,1613,988
93888,28,1609,973
93900,30,1592,979
93937,12,1602,983
94009,29,1609,1002
94018,23,1601,983
94061,22,1596,975
94099,13,1598,971
94137,15,1603,972
94177,22,1616,970
94217,21,1622,976
94282,11,1599,993
94299,20,1612,973
94337,26,1619,971
94377,18,1596,968
94417,19,1611,979
94457,18,1616,977
94497,29,1609,970
94537,30,1592,981
94577,22,1614,974
94650,22,1603,973
94657,12,1599,982
94701,27,1606,975
94751,22,1591,989
94809,13,1590,977
94817,15,1606,980
94857,30,1598,972
94897,8,1615,973
94937,27,1601,989
94978,15,1600,989
95018,19,1610,997
95081,18,1594,997
95098,26,1613,974
95138,18,1586,996
95178,22,1613,977
95219,33,1593,986
95258,32,1601,983
95298,15,1602,993
95352,21,1585,979
95411,27,1605,977
95417,20,1605,978
95459,32,1601,976
95510,20,1610,970
95539,15,1605,980
95578,14,1584,973
95618,27,1612,972
95658,19,1597,971
95699,15,1609,977
95738,20,1606,992
95779,29,1586,976
95819,26,1600,980
95889,21,1603,989
95899,21,1582,982
95938,22,1615,990
95979,36,1609,971
96019,21,1599,985
96064,23,1608,993
96120,7,1598,1001
96169,30,1596,981
96180,25,1601,991
96218,21,1607,999
96259,19,1611,989
96312,28,1607,985
96338,31,1617,985
96378,31,1602,988
96419,22,1607,992
96459,17,1605,974
96499,17,1598,990
96539,21,1602,974
96578,17,1595,975
96618,25,1619,971
96684,24,1556,1022
96730,29,1648,972
96741,26,1617,998
96810,38,1606,981
96820,30,1607,977
96869,13,1614,976
96919,29,1605,971
96939,9,1613,983
96979,38,1602,978
97018,11,1622,962
97085,23,1579,989
97099,18,1599,989
97138,18,1597,996
97178,10,1593,980
97218,16,1616,976
97259,23,1613,976
97299,13,1606,976
97339,30,1587,970
97379,26,1608,986
97419,25,1627,976
97463,19,1590,977
97520,20,1623,961
97539,30,1630,954
97579,27,1586,968
97619,29,1630,973
97664,26,1603,1001
97711,27,1601,992
97739,19,1607,967
97781,8,1607,974
97832,26,1604,984
97922,25,1614,965
97932,28,1612,990
97939,17,1597,985
97990,24,1612,986
98019,18,1613,973
98059,12,1598,957
98099,19,1624,980
98139,25,1605,990
98179,22,1610,975
98219,20,1600,994
98290,3,1598,968
98301,34,1616,985
98339,17,1595,985
98379,26,1598,975
98419,29,1607,989
98475,23,1608,978
98571,27,1615,992
98616,20,1603,951
98620,14,1613,997
98629,15,1609,996
98659,17,1596,985
98699,27,1603,974
98762,29,1607,991
98781,21,1610,993
98819,39,1603,984
98860,35,1600,983
98899,30,1597,989
98939,24,1602,972
98979,19,1605,978
99019,29,1601,992
99084,28,1613,982
99101,23,1603,987
99161,19,1610,974
99203,20,1604,983
99255,34,1598,971
99260,19,1621,979
99299,21,1601,987
99341,43,1603,983
99380,19,1608,971
99420,22,1610,967
99484,21,1605,983
99500,15,1611,967
99540,19,1618,960
99580,12,1598,961
99620,22,1604,972
99660,13,1605,968
99700,26,1621,977
99740,27,1596,970
99853,12,1615,969
99902,34,1628,945
99913,28,1599,970
99950,34,1596,975
99962,24,1607,968
99980,29,1606,970
100020,27,1614,966
100060,27,1619,982
100100,24,1607,979
100140,21,1611,959
100180,27,1603,970
100220,15,1613,965
100284,17,1601,989
100302,25,1596,991
100340,16,1602,965
100380,22,1605,987
100420,20,1612,989
100460,15,1607,991
100513,36,1612,982
100552,18,1605,978
100610,15,1604,979
100614,24,1614,984
100695,17,1606,987
100699,24,1606,995
100740,14,1602,979
100780,21,1603,992
100820,27,1610,961
100860,16,1584,978
100900,17,1603,972
100940,27,1610,994
100980,26,1599,981
101020,23,1603,975
101092,18,1610,992
101101,19,1601,984
101175,20,1607,1001
101182,21,1599,985
101223,18,1601,981
101323,8,1608,972
101333,24,1599,974
101371,30,1593,977
101380,23,1587,971
101421,27,1598,973
101461,23,1597,976
101522,9,1610,981
101533,23,1596,989
101581,13,1588,984
101621,29,1601,986
101661,25,1608,968
101701,11,1599,1010
101741,20,1585,994
101781,20,1611,979
101821,33,1586,995
101887,14,1601,988
101941,26,1603,1002
101952,9,1603,1000
102002,17,1602,986
102013,12,1603,991
102052,21,1597,971
102092,16,1603,984
102154,11,1590,978
102182,31,1603,988
102221,30,1591,992
102253,23,1605,986
102315,19,1599,980
102362,14,1599,989
102372,21,1613,988
102421,37,1601,1001
102461,28,1586,997
102501,18,1594,981
102541,21,1603,983
102581,18,1588,988
102622,18,1609,974
102685,19,1603,992
102703,33,1601,977
102741,28,1599,977
102781,13,1614,972
102822,13,1598,980
102861,15,1600,983
102913,27,1599,986
102966,30,1592,961
102973,11,1614,988
103018,19,1597,978
103062,26,1597,963
103116,18,1599,987
103133,26,1606,986
103182,28,1599,973
103221,14,1609,992
103262,15,1604,978
103301,17,1608,982
103342,14,1605,976
103381,25,1601,1001
103422,28,1597,968
103486,18,1602,971
103493,27,1603,972
103573,21,1610,985
103613,13,1589,982
103623,21,1593,984
103682,15,1600,968
103692,7,1592,973
103742,11,1612,992
103782,32,1605,980
103822,7,1605,1001
103893,23,1602,990
103903,21,1595,987
103942,25,1602,975
103982,29,1594,985
104013,13,1614,988
104062,22,1579,981
104093,18,1604,989
104142,15,1594,980
104182,22,1602,984
104234,18,1614,970
104296,20,1611,992
104304,21,1611,988
104355,29,1605,989
104413,29,1596,997
104433,20,1599,993
104453,17,1599,992
104493,24,1602,993
104542,20,1588,999
104582,12,1611,983
104622,16,1609,981
104689,35,1596,988
104712,21,1592,992
104733,21,1594,1004
104782,23,1599,993
104813,15,1587,982
104863,10,1581,982
104893,29,1606,980
104967,23,1604,993
104974,22,1598,987
105033,27,1590,984
105084,19,1592,989
105126,18,1582,984
105132,17,1594,998
105177,36,1594,981
105233,26,1593,1013
105263,21,1593,990
105293,14,1609,969
105333,23,1605,1009
105373,23,1603,995
105413,17,1605,966
105485,13,1622,987
105495,23,1616,975
105533,22,1594,991
105583,6,1605,993
105613,21,1590,967
105653,16,1614,987
105693,21,1597,1001
105733,20,1603,993
105785,25,1591,987
105844,18,1594,991
105894,9,1600,996
105944,17,1603,991
105954,33,1588,993
105982,18,1610,977
106022,27,1603,970
106062,20,1609,979
106102,25,1617,970
106142,33,1605,991
106182,20,1613,984
106214,10,1608,988
106286,33,1612,979
106293,21,1607,978
106334,12,1597,981
106374,29,1611,982
106414,22,1595,977
106487,30,1600,971
106496,17,1611,986
106574,18,1590,982
106584,24,1612,985
106625,7,1603,979
106653,18,1592,985
106693,15,1595,987
106733,17,1606,985
106784,17,1600,977
106813,23,1594,1002
106853,26,1599,997
106917,26,1598,990
106936,24,1592,991
106973,18,1588,983
107013,21,1585,993
107053,23,1599,996
107093,25,1610,962
107133,17,1597,995
107186,25,1595,989
107214,20,1598,978
107253,24,1594,970
107293,14,1595,988
107333,27,1606,980
107373,8,1597,981
107426,33,1596,974
107475,15,1611,984
107535,24,1601,994
107579,33,1601,997
107589,16,1598,987
107613,22,1591,981
107653,33,1597,999
107693,23,1595,980
107733,10,1602,995
107773,21,1596,1001
107813,20,1600,967
107886,24,1607,992
107894,29,1600,997
107933,11,1586,993
107973,32,1609,982
108013,13,1600,972
108054,16,1595,991
108094,16,1593,989
108145,14,1589,987
108195,31,1602,970
108256,19,1598,997
108299,13,1601,991
108306,18,1585,995
108335,22,1606,995
108374,27,1603,991
108414,19,1610,990
108454,7,1606,986
108494,22,1596,966
108534,7,1610,980
108574,7,1605,998
108614,5,1610,980
108685,13,1611,988
108697,13,1615,972
108734,29,1603,986
108774,20,1617,979
108814,23,1610,990
108868,25,1598,971
108916,24,1608,975
108995,12,1600,999
109010,11,1613,969
109016,18,1600,963
109057,27,1606,980
109094,30,1610,992
109147,37,1601,992
109174,13,1603,989
109215,20,1606,987
109254,19,1602,985
109295,11,1603,977
109335,29,1604,984
109374,18,1602,985
109415,23,1612,1000
109480,24,1602,976
109495,19,1597,982
109534,11,1604,986
109595,27,1615,976
109639,29,1596,969
109684,17,1602,980
109695,20,1601,984
109735,15,1591,998
109774,27,1602,986
109814,29,1605,990
109887,25,1598,988
109897,24,1592,994
109934,22,1607,990
109974,19,1598,992
110015,24,1586,1003
110055,31,1597,982
110094,12,1609,985
110134,11,1582,983
110174,39,1586,987
110227,21,1602,999
110315,23,1616,991
110325,17,1594,987
110336,23,1593,1003
110386,25,1602,978
110415,31,1591,983
110455,24,1581,986
110495,26,1604,972
110534,10,1594,988
110574,24,1601,995
110615,23,1594,996
110677,7,1591,978
110698,20,1590,970
110735,34,1605,970
110775,24,1597,977
110816,9,1591,997
110855,28,1598,986
110929,18,1604,1000
110940,23,1594,981
110993,15,1602,996
111047,9,1602,985
111096,21,1598,979
111107,12,1603,977
111136,14,1603,988
111175,22,1593,980
111216,34,1608,989
111256,27,1608,971
111295,25,1592,991
111335,26,1605,980
111375,17,1609,976
111415,13,1602,986
111455,23,1594,976
111496,14,1609,975
111536,10,1605,1001
111581,24,1599,997
111670,8,1598,980
111677,19,1602,987
111696,4,1609,982
111740,18,1609,986
111798,19,1587,979
111816,19,1618,991
111856,37,1600,988
111896,16,1597,986
111940,12,1598,984
111975,11,1598,987
112015,15,1600,986
112055,23,1600,988
112096,13,1602,998
112135,9,1595,974
112175,18,1600,984
112215,8,1600,986
112280,17,1582,1005
112296,27,1582,972
112347,18,1619,976
112417,9,1602,979
112460,17,1609,996
112470,23,1594,981
112495,19,1600,988
112536,25,1602,983
112575,20,1594,1004
112615,27,1603,984
112679,17,1606,984
112696,20,1595,990
112735,18,1596,987
112775,11,1608,986
112816,20,1594,1001
112856,29,1603,985
112896,18,1593,1005
112936,23,1612,992
112976,16,1583,998
113033,21,1605,999
113089,27,1595,987
113138,11,1611,987
113148,28,1613,983
113231,24,1599,982
113240,19,1608,1001
113288,15,1593,987
113297,23,1599,989
113337,22,1592,988
113377,14,1601,1003
113416,18,1586,986
113488,32,1587,983
113496,12,1599,999
113537,29,1596,993
113576,19,1598,989
113617,17,1592,987
113656,9,1593,986
113696,21,1600,1000
113737,23,1603,982
113776,30,1592,987
113839,19,1597,999
113928,26,1603,985
113937,23,1584,988
113947,9,1571,987
113989,19,1604,983
114016,11,1588,987
114056,19,1576,1021
114096,15,1515,1036
114137,-11,1625,904
114176,62,1788,924
114217,47,1659,976
114279,74,1568,1073
114296,40,1513,1042
114336,-9,1576,984
114377,-5,1655,921
114416,24,1632,947
114456,41,1565,1008
114540,13,1636,981
114547,10,1640,959
114601,10,1615,957
114659,31,1596,988
114707,26,1609,984
114716,35,1616,969
114736,19,1624,974
114776,-19,1634,933
114817,59,1645,1009
114857,-54,1371,1081
114897,-5,1599,1016
114937,10,1607,983
114977,23,1590,996
115017,15,1561,992
115088,33,1663,948
115097,79,1670,972
115137,18,1547,1030
115209,19,1647,930
115252,23,1575,1019
115301,10,1554,1013
115308,16,1574,997
115359,6,1639,948
115377,36,1647,962
115417,45,1609,998
115457,36,1580,988
115509,17,1687,916
115538,31,1605,975
115577,33,1594,996
115617,12,1621,954
115657,17,1628,923
115697,32,1628,972
115737,19,1575,1002
115777,38,1595,982
115817,13,1628,973
115883,16,1617,967
115897,37,1629,946
115938,21,1650,918
115978,10,1599,976
116027,25,1646,936
116058,32,1676,953
116098,54,1615,967
116168,25,1678,901
116219,20,1667,916
116228,24,1679,908
116273,38,1639,942
116297,55,1664,935
116337,21,1576,948
116419,14,1632,892
116427,36,1656,921
116457,31,1684,916
116497,15,1578,957
116537,38,1669,958
116577,57,1590,945
116617,-7,1639,929
116681,114,1679,955
116698,63,1662,929
116737,1,1660,910
116777,13,1690,844
116832,80,1732,891
116870,-11,1593,903
116958,98,1709,891
116962,72,1700,896
116979,54,1633,903
117019,-7,1614,889
117058,62,1720,851
117109,42,1672,894
117138,21,1609,913
117178,37,1654,876
117218,42,1727,864
117259,5,1662,867
117299,53,1690,856
117338,59,1681,902
117378,48,1668,861
117418,35,1708,851
117480,33,1662,863
117498,29,1644,878
117600,36,1697,858
117648,34,1680,863
117658,46,1686,849
117669,54,1692,856
117699,62,1696,873
117738,59,1693,861
117779,35,1664,852
117819,62,1700,870
117881,48,1666,870
117898,33,1666,855
117938,51,1706,853
117978,37,1666,873
118018,39,1704,856
118058,67,1722,856
118099,48,1680,881
118139,29,1684,867
118182,45,1693,850
118229,42,1671,879
118269,52,1686,859
118319,48,1710,835
118338,55,1697,873
118379,47,1649,918
118419,27,1660,893
118458,57,1675,885
118498,38,1679,888
118538,45,1684,863
118579,39,1676,855
118619,62,1699,865
118682,62,1670,827
118698,73,1743,873
118739,66,1745,809
118779,55,1739,809
118819,82,1713,833
118864,54,1697,838
118913,53,1717,811
118961,72,1714,830
118980,64,1684,852
119019,49,1710,819
119059,70,1720,794
119110,60,1727,817
119139,59,1720,814
119179,79,1715,802
119219,67,1705,815
119259,62,1713,795
119299,91,1722,812
119339,80,1724,816
119380,63,1701,808
119419,69,1721,804
119512,58,1720,792
119517,70,1720,820
119582,66,1716,802
119592,63,1727,784
119635,60,1719,803
119659,70,1716,821
119699,77,1722,789
119739,65,1703,828
119779,68,1713,813
119819,70,1735,795
119884,69,1720,783
119899,66,1731,805
119939,68,1714,816
119979,63,1708,813
120019,63,1694,789
120059,69,1721,791
120099,71,1714,811
120139,75,1725,811
120193,65,1706,819
120260,57,1719,790
120310,72,1730,805
120319,64,1724,809
120340,58,1710,812
120380,66,1715,825
120450,72,1722,798
120460,77,1710,819
120500,69,1711,799
120539,59,1714,789
120611,66,1720,823
120620,68,1709,806
120665,70,1729,819
120699,61,1708,823
120739,61,1704,811
120805,62,1716,816
120819,53,1705,820
120859,59,1715,830
120899,74,1725,809
120939,58,1706,817
120979,63,1721,833
121019,69,1710,819
121084,62,1703,800
121099,65,1718,813
121141,75,1707,820
121212,71,1710,827
121220,60,1701,824
121262,58,1720,828
121359,59,1693,815
121370,64,1703,820
121380,59,1702,813
121421,82,1713,834
121461,71,1726,803
121515,73,1712,819
121541,60,1726,809
121581,59,1705,829
121621,78,1721,831
121661,78,1706,818
121701,64,1706,818
121740,65,1717,800
121781,62,1701,824
121821,69,1699,825
121921,69,1716,810
121926,70,1705,827
121933,62,1703,823
121993,64,1713,834
122051,67,1728,810
122060,64,1710,819
122100,64,1707,818
122140,74,1707,816
122180,75,1721,824
122220,80,1714,808
122292,72,1707,800
122302,75,1711,834
122340,63,1706,802
122380,65,1729,800
122420,67,1712,812
122460,68,1720,824
122500,74,1707,800
122540,69,1714,810
122593,64,1715,797
122642,69,1712,811
122653,60,1722,811
122694,69,1705,811
122744,62,1720,782
122780,66,1703,827
122820,69,1708,807
122860,72,1726,800
122900,66,1694,826
122940,74,1725,819
122980,61,1705,813
123020,62,1701,829
123085,67,1700,819
123100,79,1730,803
123140,65,1709,810
123180,66,1704,845
123221,75,1706,820
123303,67,1720,804
123311,72,1711,823
123373,68,1720,802
123382,59,1716,814
123432,75,1716,827
123461,69,1722,821
123526,68,1709,816
123532,62,1717,812
123581,60,1708,826
123621,64,1731,808
123661,61,1702,810
123701,65,1716,809
123741,67,1721,811
123781,57,1709,830
123821,67,1723,831
123884,72,1700,837
123902,56,1703,834
123941,69,1724,810
123988,68,1717,811
124033,67,1715,805
124074,68,1713,811
124094,56,1705,814
124143,64,1712,829
124201,70,1698,830
124221,67,1715,818
124284,63,1703,822
124292,60,1707,820
124341,80,1712,830
124381,64,1722,819
124421,63,1708,816
124461,66,1710,821
124501,82,1700,830
124541,67,1707,827
124581,55,1706,853
124621,49,1712,818
124692,64,1706,826
124775,61,1690,826
124778,70,1704,831
124783,64,1701,828
124843,66,1709,834
124852,66,1701,808
124903,72,1700,831
124942,76,1718,820
124983,74,1711,827
125012,58,1715,817
125052,71,1728,812
125132,77,1706,802
125143,74,1728,816
125186,74,1711,809
125222,76,1719,815
125262,66,1711,818
125302,68,1720,823
125342,65,1705,817
125382,68,1706,827
125422,73,1719,823
125486,60,1706,821
125502,66,1704,828
125542,70,1714,811
125582,67,1701,812
125622,61,1702,825
125662,81,1720,823
125742,74,1709,819
125786,71,1716,815
125836,54,1724,832
125837,58,1717,827
125853,69,1719,816
125923,64,1706,810
125934,76,1715,827
125982,77,1700,818
126022,68,1725,811
126062,63,1702,817
126102,55,1720,824
126142,70,1706,829
126182,60,1697,808
126222,62,1728,812
126287,63,1705,832
126294,58,1715,815
126385,70,1719,818
126433,63,1699,831
126483,69,1711,817
126492,67,1732,825
126502,62,1713,815
126542,81,1715,812
126582,63,1712,807
126622,56,1701,819
126688,66,1716,808
126692,62,1713,832
126742,60,1715,833
126782,66,1720,831
126813,70,1723,819
126862,51,1717,821
126893,77,1708,836
126942,70,1724,838
126982,79,1707,826
127038,64,1708,821
127075,70,1702,828
127094,64,1717,828
127139,69,1716,821
127186,65,1716,818
127213,74,1718,836
127253,59,1718,818
127302,79,1718,817
127333,75,1696,825
127373,72,1709,815
127413,65,1707,826
127485,67,1710,816
127494,80,1710,803
127533,57,1723,816
127573,70,1713,814
127613,82,1697,831
127653,67,1706,821
127693,51,1695,826
127747,53,1721,818
127797,65,1702,821
127845,74,1697,816
127856,48,1715,792
127909,72,1713,826
127933,60,1707,841
127973,63,1698,848
128014,75,1707,828
128053,62,1704,808
128094,71,1707,796
128133,60,1707,816
128174,79,1703,830
128213,74,1717,829
128276,63,1716,840
128295,59,1702,841
128333,63,1701,825
128374,58,1707,809
128413,56,1711,821
128459,60,1706,818
128519,55,1733,812
128568,60,1713,808
128577,57,1706,823
128626,60,1700,811
128676,72,1706,825
128719,77,1717,822
128735,63,1709,805
128773,65,1709,824
128814,67,1733,804
128853,67,1719,824
128893,63,1729,804
128933,74,1724,791
128973,66,1706,814
129013,70,1715,819
129078,59,1708,798
129095,53,1723,815
129133,61,1710,815
129174,65,1718,794
129234,69,1708,810
129277,68,1714,821
129325,75,1705,802
129334,67,1714,823
129374,61,1707,819
129414,64,1720,808
129485,81,1714,834
129494,65,1736,799
129535,67,1715,830
129574,62,1737,811
129618,77,1709,824
129655,83,1709,837
129694,60,1709,825
129735,69,1687,833
129774,53,1723,795
129814,53,1728,821
129880,81,1659,845
129896,67,1686,818
129934,64,1748,808
129975,46,1708,830
130014,79,1716,824
130055,63,1710,825
130129,66,1697,813
130134,67,1721,819
130187,76,1722,822
130237,66,1713,805
130288,80,1702,815
130296,67,1713,809
130335,47,1726,802
130375,53,1709,825
130415,72,1715,827
130455,72,1696,834
130495,56,1693,820
130535,72,1702,814
130575,67,1687,827
130615,79,1709,815
130685,68,1715,807
130695,54,1719,818
130735,67,1684,817
130787,79,1733,817
130848,56,1737,796
130855,63,1748,798
130908,83,1669,841
130935,65,1726,811
130975,44,1699,819
131015,77,1705,834
131078,68,1717,818
131095,51,1701,818
131135,79,1689,817
131175,71,1703,800
131215,68,1687,825
131255,83,1687,809
131295,77,1726,808
131335,60,1701,821
131375,74,1710,818
131447,57,1715,823
131457,67,1698,823
131510,63,1716,818
131578,53,1713,826
131585,62,1707,826
131628,66,1703,814
131655,67,1703,809
131695,71,1705,817
131735,70,1724,815
131775,83,1702,801
131815,70,1706,821
131896,79,1759,840
131905,79,1734,818
131935,76,1706,820
131975,63,1706,826
132015,69,1706,797
132055,61,1715,820
132095,69,1701,813
132135,63,1714,821
132190,67,1716,820
132279,61,1703,827
132288,59,1725,824
132296,77,1720,842
132338,66,1700,824
132397,67,1715,834
132447,77,1703,821
132493,74,1700,829
132505,67,1713,826
132535,69,1703,828
132575,72,1713,817
132615,72,1700,833
132687,72,1716,824
132697,61,1719,815
132735,60,1688,833
132775,66,1714,841
132815,59,1707,826
132855,70,1721,821
132895,65,1702,822
132935,66,1717,823
132975,63,1718,822
133077,70,1707,805
133086,71,1716,812
133137,66,1718,812
133147,67,1711,816
133196,67,1698,830
133215,71,1716,814
133255,67,1720,802
133295,67,1714,845
133335,82,1722,813
133375,70,1711,813
133415,71,1721,819
133488,71,1711,802
133496,73,1727,808
133537,62,1708,805
133577,74,1721,805
133617,70,1717,820
133657,68,1715,811
133729,54,1718,818
133739,68,1701,833
133788,62,1718,819
133876,68,1717,820
133888,79,1719,822
133896,65,1711,809
133937,84,1706,825
133977,60,1717,795
134040,78,1716,831
134056,71,1720,821
134096,46,1699,821
134137,78,1714,812
134176,73,1708,828
134216,87,1695,829
134256,67,1712,832
134296,76,1697,811
134336,61,1713,819
134414,76,1703,817
134437,71,1716,813
134478,56,1693,844
134529,63,1726,793
134537,60,1719,813
134576,78,1719,834
134616,93,1696,836
134656,76,1727,812
134729,69,1724,823
134737,71,1728,792
134776,66,1713,814
134816,61,1705,824
134856,74,1722,804
134896,65,1707,825
134936,67,1709,828
134976,71,1721,812
135016,84,1704,836
135087,57,1714,835
135139,72,1709,815
135189,65,1707,815
135200,72,1701,824
135248,72,1727,838
135258,64,1712,822
135296,67,1719,834
135337,66,1722,811
135377,68,1715,820
135417,62,1703,816
135488,62,1715,837
135498,74,1720,818
135537,65,1703,818
135577,66,1719,828
135617,68,1716,815
135657,70,1715,833
135697,68,1715,815
135737,74,1708,825
135810,75,1713,837
135853,60,1718,837
135868,62,1700,812
135912,78,1709,826
135938,68,1725,807
135983,75,1710,823
136041,74,1707,837
136057,69,1697,814
136097,66,1715,813
136137,59,1697,828
136177,76,1710,828
136217,88,1722,822
136283,68,1709,803
136298,59,1712,813
136337,59,1716,808
136377,84,1719,820
136418,76,1708,812
136457,63,1737,816
136497,63,1700,815
136537,68,1703,816
136588,76,1705,842
136639,60,1696,801
136693,57,1698,828
136740,69,1717,824
136747,65,1720,823
136798,66,1699,834
136817,63,1714,830
136858,63,1708,813
136897,55,1699,837
136937,87,1707,820
136977,66,1691,842
137017,57,1712,830
137090,62,1691,830
137099,66,1694,822
137137,62,1708,827
137177,69,1705,836
137217,75,1701,819
137258,67,1699,813
137297,69,1709,814
137349,61,1699,817
137433,67,1717,817
137442,72,1711,833
137489,65,1700,816
137498,66,1700,827
137538,69,1699,818
137578,67,1706,829
137618,87,1697,825
137659,71,1706,831
137699,62,1699,829
137739,61,1709,844
137779,70,1711,793
137818,77,1696,829
137889,63,1703,830
137899,57,1685,835
137939,74,1725,812
137983,63,1707,836
138043,67,1697,825
138101,63,1693,826
138109,91,1690,835
138138,70,1721,816
138178,70,1726,819
138219,71,1716,823
138292,72,1707,840
138299,-5,1881,806
138339,80,1760,808
138379,83,1716,827
138419,66,1723,800
138459,61,1726,801
138499,66,1698,828
138539,65,1714,823
138579,66,1720,798
138639,71,1702,826
138659,67,1726,821
138701,71,1724,793
138740,57,1711,817
138779,78,1721,821
138850,71,1722,806
138859,62,1711,807
138898,68,1697,827
138939,76,1720,817
139014,59,1708,815
139025,74,1714,825
139092,69,1709,816
139099,76,1716,819
139138,59,1718,817
139178,58,1711,831
139229,61,1708,836
139258,72,1714,808
139298,64,1714,823
139339,82,1716,814
139378,66,1696,824
139418,71,1717,812
139484,66,1701,816
139499,57,1697,803
139539,81,1713,812
139579,62,1700,816
139645,63,1706,805
139659,53,1715,802
139701,64,1699,817
139751,68,1719,828
139813,76,1709,816
139819,78,1703,827
139894,63,1707,816
139903,64,1704,806
139939,72,1704,815
139979,72,1700,797
140019,74,1683,836
140060,83,1711,811
140100,67,1692,819
140140,73,1724,805
140179,65,1695,833
140219,58,1723,809
140283,63,1675,846
140300,71,1684,831
140351,69,1709,806
140422,77,1708,833
140461,76,1720,831
140500,73,1712,814
140505,64,1709,818
140539,81,1715,797
140579,67,1699,830
140619,64,1703,802
140690,68,1711,829
140702,70,1703,835
140739,60,1713,820
140780,71,1710,802
140819,74,1693,831
140859,69,1707,846
140899,67,1711,827
140939,65,1713,834
140979,67,1698,829
141054,64,1704,822
141061,82,1703,832
141105,74,1696,832
141143,59,1710,829
141220,63,1717,832
141272,78,1713,823
141279,63,1707,822
141299,75,1706,814
141340,60,1709,822
141379,77,1705,825
141420,58,1706,834
141484,64,1709,835
141500,60,1695,835
141540,68,1707,835
141579,69,1702,824
141619,63,1711,844
141659,76,1712,824
141699,62,1715,827
141740,79,1711,846
141814,56,1702,835
141823,77,1718,822
141913,64,1713,822
141914,58,1714,817
141983,61,1714,813
141991,74,1715,834
142021,58,1700,839
142060,68,1723,810
142100,66,1715,837
142141,77,1715,826
142180,64,1714,814
142220,68,1718,811
142292,59,1704,838
142304,67,1703,816
142341,65,1718,820
142381,70,1710,832
142420,73,1725,807
142460,92,1739,828
142574,12,1782,777
142585,101,1760,843
142592,40,1648,835
142645,75,1724,833
142661,49,1692,840
142733,61,1704,824
142742,47,1706,852
142781,56,1680,847
142820,60,1707,846
142860,60,1693,842
142901,60,1693,851
142940,59,1707,824
142980,75,1713,841
143021,140,1619,874
143093,33,1573,876
143102,108,1637,890
143141,56,1677,834
143196,57,1676,855
143221,53,1697,842
143260,66,1700,796
143334,49,1679,829
143341,48,1675,821
143381,92,1671,819
143420,80,1817,825
143482,40,1722,776
143494,-3,1831,761
143532,63,1778,800
143611,47,1735,776
143621,52,1769,761
143671,67,1731,747
143701,61,1750,744
143740,56,1741,772
143780,56,1731,787
143820,69,1769,776
143892,63,1745,777
143902,58,1745,777
143952,47,1740,789
143980,33,1728,772
144020,57,1744,769
144062,47,1727,756
144101,29,1716,778
144141,54,1705,773
144212,61,1727,790
144265,61,1722,810
144273,53,1726,795
144349,58,1730,779
144353,56,1723,803
144412,53,1740,800
144421,60,1724,781
144462,47,1730,803
144501,37,1736,799
144542,66,1726,791
144582,47,1737,805
144621,56,1720,803
144691,52,1722,784
144701,60,1725,785
144741,40,1709,799
144782,46,1737,777
144821,44,1725,764
144861,45,1723,777
144902,51,1730,795
144953,57,1729,797
145012,39,1729,786
145056,38,1736,787
145058,54,1736,783
145104,55,1723,791
145142,32,1713,797
145182,50,1736,794
145221,45,1721,800
145262,51,1731,811
145302,55,1730,803
145342,49,1736,792
145381,56,1698,805
145422,49,1714,818
145493,48,1694,823
145501,35,1690,839
145541,42,1733,807
145603,35,1696,817
145613,35,1717,812
145655,52,1728,795
145707,42,1725,803
145741,41,1708,846
145781,72,1754,819
145821,29,1666,839
145885,44,1709,817
145892,47,1687,825
145941,33,1697,827
145981,45,1726,852
146022,54,1703,835
146062,42,1718,812
146102,39,1665,833
146133,40,1711,837
146173,53,1708,810
146243,48,1696,844
146254,38,1685,830
146293,36,1717,811
146345,40,1704,833
146405,53,1710,826
146414,45,1713,819
146463,63,1698,850
146493,49,1710,869
146542,46,1710,830
146582,64,1721,841
146613,40,1675,827
146694,47,1739,808
146713,37,1708,845
146743,53,1698,821
146773,42,1709,817
146813,48,1724,813
146863,53,1692,843
146903,58,1659,861
146957,56,1716,819
146974,41,1719,819
147019,43,1675,848
147074,43,1702,821
147126,21,1696,849
147134,31,1690,831
147173,36,1685,831
147213,63,1725,809
147253,32,1705,800
147293,52,1727,785
147333,51,1730,801
147383,43,1691,756
147423,60,1725,799
147485,51,1731,796
147492,42,1741,791
147543,59,1739,767
147583,49,1728,769
147623,69,1745,749
147674,53,1728,775
147736,63,1739,788
147747,57,1739,793
147773,52,1743,797
147812,52,1692,811
147886,36,1694,783
147894,48,1730,761
147932,34,1652,842
147973,54,1702,813
148014,43,1699,840
148104,35,1711,820
148149,51,1711,831
148164,50,1729,797
148182,35,1735,813
148212,46,1698,812
148264,56,1744,816
148293,48,1688,840
148333,58,1730,818
148407,44,1656,871
148414,0,1610,853
148453,19,1654,881
148493,58,1725,860
148534,9,1605,872
148574,15,1587,914
148613,40,1615,946
148725,29,1644,906
148736,31,1643,902
148745,36,1671,913
148796,37,1694,897
148844,42,1676,887
148887,42,1660,885
148897,33,1625,900
148933,42,1684,900
148973,38,1689,895
149013,36,1656,903
149084,26,1646,922
149093,54,1668,956
149133,21,1590,984
149173,15,1568,1036
149213,46,1570,1021
149253,5,1564,1035
149293,37,1626,981
149333,-9,1518,1025
149373,22,1516,1049
149445,32,1541,1035
149455,31,1545,1038
149537,46,1664,971
149545,43,1624,998
149604,37,1591,977
149656,18,1621,968
149663,31,1635,963
149693,34,1626,957
149733,26,1591,988
149773,25,1609,963
149813,21,1617,975
149885,27,1604,967
149894,27,1606,985
149933,23,1616,955
149973,25,1614,965
150013,31,1593,980
150053,24,1631,982
150093,38,1648,955
150134,29,1614,962
150238,12,1639,940
150247,28,1635,937
150285,30,1636,947
150294,30,1617,954
150340,29,1624,947
150373,30,1633,942
150413,37,1618,971
150454,23,1620,951
150494,26,1632,937
150534,34,1634,954
150574,29,1644,943
150614,19,1649,935
150679,46,1643,935
150694,27,1645,923
150734,30,1654,939
150774,29,1634,933
150814,30,1648,933
150854,30,1641,933
150906,33,1634,945
150950,37,1649,924
151005,33,1633,910
151018,17,1641,936
151054,34,1641,928
151105,31,1659,925
151134,31,1641,920
151174,42,1639,929
151214,27,1638,925
151254,30,1639,938
151294,19,1640,935
151334,44,1642,918
151374,30,1628,925
151414,25,1660,913
151477,35,1645,910
151494,27,1649,926
151564,37,1649,919
151615,48,1637,914
151654,34,1650,916
151666,28,1652,918
151716,18,1657,931
151734,31,1632,921
151774,42,1650,890
151814,33,1636,926
151879,35,1666,922
151894,31,1640,930
151935,27,1637,915
151975,33,1635,932
152014,33,1638,919
152055,42,1649,904
152094,24,1648,922
152135,25,1652,927
152174,33,1644,917
152215,40,1659,912
152292,35,1641,928
152305,23,1642,913
152358,37,1661,910
152415,31,1655,916
152426,30,1644,919
152454,37,1669,923
152495,36,1644,913
152547,41,1650,907
152584,28,1644,921
152615,30,1633,917
152655,37,1662,929
152719,31,1644,903
152768,21,1655,907
152776,44,1644,910
152816,37,1639,914
152855,31,1654,919
152895,47,1638,919
152935,37,1660,926
152975,30,1651,910
153015,38,1660,915
153086,31,1659,933
153096,33,1661,924
153135,36,1654,918
153175,34,1649,917
153215,34,1669,914
153255,30,1653,910
153307,37,1647,905
153367,41,1647,908
153409,31,1645,922
153420,21,1647,911
153455,26,1655,921
153517,41,1649,914
153535,31,1653,921
153575,31,1659,898
153615,29,1654,929
153655,38,1655,918
153695,22,1660,904
153735,21,1653,924
153775,40,1652,918
153815,26,1653,944
153881,33,1650,916
153896,34,1661,916
153970,27,1642,906
153976,42,1647,931
154027,38,1651,911
154077,50,1650,918
154095,32,1651,922
154135,40,1655,917
154175,43,1648,933
154215,31,1649,931
154279,37,1631,899
154296,30,1660,923
154335,28,1643,918
154375,31,1651,917
154415,32,1646,928
154455,28,1650,904
154495,34,1659,913
154535,37,1649,925
154575,47,1675,905
154638,29,1652,917
154686,43,1653,910
154729,33,1621,916
154739,38,1630,924
154789,40,1673,903
154816,35,1663,924
154856,23,1632,905
154897,38,1655,901
154936,24,1654,913
154976,49,1657,900
155017,43,1643,908
155089,34,1648,901
155097,25,1654,908
155137,30,1660,905
155177,33,1644,912
155217,50,1629,937
155256,38,1645,901
155296,24,1639,919
155352,40,1638,918
155410,25,1651,909
155417,41,1642,910
155478,37,1664,928
155567,37,1666,901
155577,35,1655,884
155586,27,1659,897
155616,31,1644,891
155657,43,1645,905
155697,29,1643,902
155737,28,1655,880
155776,39,1655,897
155817,87,1683,925
155887,42,1659,898
155897,38,1643,884
155937,45,1622,881
155977,44,1650,876
156017,42,1657,878
156057,35,1656,889
156112,41,1645,876
156170,35,1659,893
156179,63,1668,890
156232,53,1679,885
156327,41,1680,874
156337,51,1667,870
156346,49,1690,868
156376,51,1682,848
156416,51,1677,865
156456,49,1668,891
156496,45,1680,875
156536,40,1664,890
156576,47,1668,882
156616,42,1671,877
156687,59,1669,879
156697,55,1672,890
156736,63,1690,875
156776,40,1684,885
156816,52,1684,885
156877,51,1667,874
156931,36,1679,865
156940,51,1671,885
156981,44,1690,873
157017,62,1679,873
157057,43,1670,881
157098,50,1684,866
157158,44,1686,874
157177,48,1689,869
157218,44,1681,870
157258,50,1684,882
157309,60,1692,866
157337,59,1677,853
157377,66,1686,872
157417,52,1690,868
157457,45,1681,876
157497,49,1703,850
157569,54,1676,861
157578,36,1677,873
157617,55,1691,860
157657,53,1681,870
157697,44,1695,870
157737,58,1683,866
157810,65,1669,876
157819,51,1699,868
157881,52,1680,855
157934,59,1687,862
157971,62,1690,865
157976,57,1692,861
158017,60,1688,865
158057,44,1684,881
158097,44,1686,869
158137,47,1692,851
158177,44,1689,847
158217,58,1675,867
158288,53,1672,852
158297,56,1682,864
158337,56,1700,861
158377,60,1671,857
158417,52,1690,874
158457,64,1689,869
158540,63,1686,869
158547,48,1684,859
158634,53,1685,876
158643,55,1684,857
158659,52,1684,862
158740,55,1675,855
158747,60,1690,864
158778,59,1676,852
158817,59,1696,847
158858,57,1675,858
158898,52,1682,864
158938,53,1694,860
158978,46,1683,864
159018,53,1693,866
159092,59,1670,882
159098,57,1662,871
159138,57,1668,870
159178,66,1692,869
159218,52,1685,862
159258,51,1685,870
159312,48,1673,875
159360,52,1698,863
159378,58,1676,861
159428,47,1679,864
159530,45,1687,854
159540,60,1684,859
159548,53,1692,848
159578,54,1682,870
159618,56,1665,875
159659,55,1673,865
159698,59,1669,888
159739,61,1673,872
159778,39,1682,878
159819,47,1672,871
159889,50,1682,872
159900,51,1679,871
159938,57,1684,869
159979,52,1683,873
160030,49,1677,870
160074,60,1670,870
160129,51,1670,868
160172,55,1694,876
160179,43,1688,873
160218,49,1688,870
160259,39,1696,876
160314,50,1679,862
160340,47,1675,869
160378,49,1670,868
160419,52,1684,855
160458,57,1679,859
160499,46,1693,866
160538,59,1694,860
160579,42,1678,853
160618,51,1681,876
160681,65,1682,865
160732,36,1673,870
160740,41,1671,871
160790,66,1688,863
160838,47,1673,855
160859,58,1685,882
160899,46,1672,863
160939,58,1693,872
160979,44,1675,858
161019,58,1687,871
161081,64,1669,878
161101,54,1689,871
161139,49,1691,861
161179,58,1676,874
161219,53,1673,880
161259,49,1688,880
161299,57,1684,859
161339,56,1679,890
161382,53,1687,873
161431,39,1687,853
161470,61,1687,885
161533,51,1681,872
161541,44,1672,872
161580,58,1669,877
161620,56,1679,870
161680,53,1685,882
161700,62,1677,880
161740,40,1671,868
161779,45,1671,872
161819,49,1675,865
161859,66,1679,868
161899,46,1677,881
161939,56,1672,877
161991,56,1685,873
162060,63,1673,873
162111,48,1691,870
162121,40,1693,861
162164,55,1675,865
162180,53,1674,861
162219,52,1684,857
162259,67,1669,858
162321,53,1685,875
162339,44,1670,862
162380,51,1682,866
162420,64,1665,876
162459,60,1685,881
162499,45,1672,873
162539,51,1673,887
162579,53,1669,873
162619,57,1670,877
162724,41,1677,865
162735,44,1681,869
162740,49,1671,883
162790,50,1688,872
162873,49,1680,873
162879,55,1691,867
162900,54,1675,875
162939,57,1671,861
162979,73,1678,878
163019,54,1689,860
163091,49,1684,873
163110,60,1675,869
163140,54,1677,863
163181,55,1686,879
163220,57,1672,872
163260,39,1683,882
163300,49,1678,878
163340,73,1672,875
163423,61,1687,892
163425,69,1665,887
163476,34,1692,869
163566,44,1689,884
163572,56,1682,875
163582,54,1658,893
163631,51,1710,857
163692,52,1661,880
163701,56,1683,862
163740,44,1690,840
163780,58,1668,855
163821,56,1683,869
163891,41,1681,864
163892,39,1687,867
163941,58,1669,868
163980,66,1684,890
164020,46,1688,876
164060,50,1681,878
164101,58,1677,885
164140,36,1694,865
164180,54,1671,866
164241,54,1664,884
164295,55,1673,862
164335,66,1671,888
164344,53,1691,878
164385,40,1678,889
164420,44,1670,884
164460,44,1672,878
164501,53,1685,861
164541,54,1673,874
164580,32,1688,872
164621,58,1668,885
164692,43,1683,858
164702,52,1689,876
164740,49,1677,882
164781,50,1685,878
164820,54,1665,871
164861,55,1692,879
164900,53,1671,877
164952,59,1693,866
165047,64,1659,899
165062,43,1676,851
165106,43,1667,874
165113,43,1663,893
165140,48,1678,883
165180,54,1679,881
165220,56,1672,882
165260,46,1659,873
165300,52,1677,879
165342,55,1673,883
165381,45,1665,887
165421,40,1683,874
165492,67,1672,867
165501,52,1686,869
165541,47,1670,880
165613,57,1690,860
165674,54,1679,874
165716,54,1683,858
165732,48,1676,877
165733,43,1664,878
165781,59,1692,880
165821,48,1671,878
165876,49,1698,882
165894,54,1687,867
165941,54,1673,866
165981,44,1672,866
166012,52,1682,868
166061,37,1684,862
166101,54,1679,867
166142,43,1679,878
166181,57,1672,861
166221,60,1681,852
166283,47,1687,862
166294,42,1675,850
166343,63,1664,872
166381,60,1675,855
166421,61,1675,865
166452,60,1681,865
166492,44,1689,859
166541,51,1677,870
166582,56,1673,863
166644,55,1679,877
166663,67,1671,866
166716,55,1681,865
166742,56,1673,856
166796,39,1679,887
166821,47,1687,861
166861,53,1680,870
166902,56,1679,846
166941,60,1672,867
166982,61,1683,868
167021,52,1687,865
167085,55,1667,860
167092,50,1686,861
167141,57,1684,878
167181,50,1683,867
167221,55,1689,857
167276,58,1679,858
167368,42,1672,844
167382,51,1680,883
167395,43,1662,864
167446,62,1675,882
167544,37,1691,854
167553,52,1689,866
167563,55,1693,856
167572,51,1703,854
167623,53,1670,888
167662,56,1699,882
167693,66,1666,876
167733,54,1671,857
167773,54,1672,867
167813,57,1684,855
167884,51,1666,873
167893,41,1661,868
167942,56,1687,875
167983,55,1649,889
168044,55,1667,854
168094,46,1681,870
168140,62,1678,880
168193,28,1697,869
168203,46,1682,855
168223,40,1660,912
168263,56,1668,865
168345,55,1684,864
168354,34,1684,857
168382,58,1685,879
168413,52,1638,882
168453,58,1711,837
168493,53,1674,837
168543,48,1670,858
168583,62,1684,849
168623,67,1709,876
168695,49,1653,876
168737,26,1693,859
168742,25,1682,867
168798,54,1713,866
168845,48,1679,897
168863,28,1632,900
168902,86,1720,844
168933,36,1666,878
168973,69,1676,878
169013,55,1718,855
169086,60,1697,876
169094,76,1704,862
169143,32,1654,881
169183,26,1688,864
169222,78,1673,869
169262,39,1647,885
169302,64,1660,880
169342,52,1679,887
169393,62,1655,878
169438,47,1672,882
169488,52,1666,898
169495,56,1677,882
169538,48,1676,865
169573,53,1685,872
169613,61,1672,872
169653,61,1681,861
169693,39,1659,866
169734,53,1671,882
169774,48,1677,890
169813,38,1676,881
169887,49,1675,875
169894,40,1663,880
169934,48,1669,883
169974,35,1650,903
170014,51,1708,869
170054,51,1671,877
170104,46,1662,852
170155,55,1654,896
170208,44,1665,867
170213,36,1685,856
170254,39,1661,875
170298,55,1672,890
170334,37,1677,866
170373,45,1691,842
170413,49,1691,847
170453,41,1684,861
170493,40,1675,869
170533,56,1698,871
170573,59,1660,868
170613,42,1668,877
170684,39,1670,872
170696,54,1678,870
170759,40,1671,870
170775,52,1677,876
170813,39,1690,856
170855,46,1687,859
170924,44,1691,863
170934,50,1687,854
170974,55,1671,860
171013,42,1670,848
171077,44,1684,860
171135,46,1675,891
171147,44,1685,869
171186,52,1698,831
171252,51,1686,857
171263,50,1690,850
171293,49,1693,855
171333,40,1686,865
171373,41,1674,858
171413,44,1681,860
171487,56,1689,856
171496,42,1675,855
171533,41,1681,867
171573,62,1680,868
171613,54,1674,859
171654,46,1671,868
171694,46,1677,864
171734,57,1682,878
171805,44,1664,861
171814,46,1671,859
171859,61,1688,862
171946,47,1686,864
171960,50,1680,856
171976,46,1674,867
172034,49,1675,851
172055,46,1681,872
172094,45,1679,852
172134,51,1685,866
172174,39,1692,848
172214,39,1677,896
172286,49,1680,864
172296,45,1684,877
172334,32,1685,867
172374,42,1671,885
172414,46,1678,868
172454,43,1676,858
172494,58,1681,874
172569,39,1677,882
172575,45,1678,863
172630,43,1679,870
172720,38,1679,871
172729,50,1676,860
172735,46,1682,870
172774,54,1672,876
172814,57,1671,866
172854,42,1668,858
172894,56,1678,880
172934,46,1670,879
172974,58,1693,857
173014,44,1682,858
173085,51,1684,853
173095,56,1675,858
173134,52,1680,863
173174,48,1680,873
173214,50,1678,879
173297,49,1675,846
173307,43,1678,863
173355,31,1682,865
173417,54,1677,860
173425,48,1690,857
173454,59,1687,879
173500,51,1674,861
173534,63,1689,841
173574,40,1683,867
173614,58,1685,852
173654,45,1695,860
173695,53,1681,857
173734,45,1690,857
173774,50,1682,873
173815,49,1697,846
173887,34,1688,865
173897,42,1688,849
173977,50,1682,865
174023,43,1679,868
174037,44,1686,861
174098,53,1693,874
174105,57,1691,863
174135,47,1692,851
174175,35,1690,855
174215,54,1700,871
174286,44,1688,860
174299,43,1690,862
174335,51,1690,847
174375,51,1700,863
174416,50,1673,875
174455,41,1690,850
174495,46,1693,869
174535,62,1688,893
174575,51,1678,865
174657,50,1689,878
174699,45,1671,871
174710,50,1703,862
174770,53,1677,849
174775,47,1687,873
174849,42,1691,858
174858,47,1686,859
174895,52,1684,870
174935,44,1689,845
174975,35,1680,854
175015,40,1675,868
175087,52,1672,894
175099,49,1691,861
175148,32,1694,879
175175,31,1680,865
175215,49,1686,865
175255,46,1683,860
175295,59,1693,856
175335,39,1681,872
175406,55,1673,865
175418,49,1676,862
175505,54,1693,873
175515,50,1692,865
175536,33,1691,868
175576,52,1675,881
175615,52,1681,862
175675,39,1682,870
175696,46,1686,873
175736,57,1667,863
175775,39,1681,884
175821,36,1681,867
175897,62,1682,868
175948,41,1691,858
175958,44,1690,862
176048,54,1690,855
176057,53,1691,884
176066,47,1681,866
176097,60,1677,864
176137,50,1688,863
176176,43,1682,855
176216,50,1689,853
176294,46,1677,855
176306,54,1679,862
176337,49,1677,856
176376,46,1681,856
176416,50,1681,853
176457,53,1685,831
176496,37,1690,859
176537,58,1685,850
176638,48,1688,880
176682,41,1682,848
176729,50,1687,885
176738,37,1683,874
176746,44,1667,883
176776,48,1678,867
176817,35,1693,873
176856,65,1679,876
176897,41,1686,855
176936,41,1694,854
176977,45,1672,877
177017,47,1681,871
177088,50,1697,894
177096,49,1678,866
177137,54,1682,864
177177,49,1677,848
177217,53,1686,858
177320,44,1683,867
177330,40,1686,861
177336,45,1687,846
177390,60,1687,849
177417,50,1687,872
177487,27,1671,863
177496,63,1708,867
177537,56,1708,862
177577,49,1671,876
177617,49,1689,866
177657,35,1682,862
177697,52,1689,859
177737,28,1697,861
177777,52,1679,878
177817,44,1692,870
177888,39,1704,850
177930,47,1682,863
177937,46,1693,845
177989,49,1690,873
178037,50,1662,886
178056,52,1684,858
178097,43,1692,860
178136,35,1683,871
178176,35,1691,880
178216,44,1664,885
178280,53,1670,878
178297,47,1689,879
178338,49,1672,893
178378,41,1692,874
178418,56,1676,881
178458,42,1692,876
178498,44,1690,871
178538,44,1685,888
178598,44,1681,849
178649,41,1676,866
178689,58,1662,869
178693,46,1679,888
178755,55,1664,868
178778,49,1689,888
178818,33,1708,853
178858,52,1660,907
178898,51,1647,909
178938,56,1673,888
178978,35,1699,833
179018,39,1667,881
179088,55,1677,848
179097,45,1680,852
179138,50,1695,842
179178,47,1692,857
179217,62,1680,857
179257,55,1687,861
179318,22,1674,899
179362,48,1626,938
179373,60,1603,939
179427,59,1627,916
179472,52,1646,912
179570,52,1649,918
179578,44,1656,908
179587,41,1654,891
179617,33,1656,906
179657,45,1653,881
179697,51,1692,870
179737,47,1675,901
179777,45,1676,881
179817,66,1680,861
179889,54,1691,842
179897,54,1683,867
179937,42,1701,859
179977,56,1682,846
180017,38,1680,865
180057,62,1684,860
180120,48,1699,863
180171,52,1672,849
180179,43,1674,843
180218,63,1683,860
180258,54,1677,859
180317,58,1703,854
180338,35,1668,876
180378,52,1681,869
180417,50,1683,877
180520,49,1681,862
180538,62,1676,882
180548,57,1671,879
180578,48,1674,857
180618,49,1686,871
180658,63,1674,886
180698,40,1679,882
180780,43,1662,878
180788,48,1672,866
180818,55,1688,857
180858,41,1669,885
180898,50,1682,877
180938,45,1684,873
180978,30,1682,876
181052,46,1674,882
181066,36,1672,876
181110,33,1665,884
181169,42,1677,873
181221,40,1667,881
181229,37,1669,868
181258,28,1667,875
181298,32,1657,885
181338,40,1668,884
181378,45,1671,864
181418,44,1676,891
181488,35,1675,872
181498,48,1677,889
181538,33,1662,881
181578,33,1673,893
181619,47,1697,885
181659,44,1630,889
181699,28,1659,894
181763,40,1667,888
181773,39,1638,912
181834,36,1655,906
181939,36,1673,889
181948,44,1645,888
181959,39,1663,884
181979,38,1661,894
182018,23,1662,895
182059,42,1680,903
182099,28,1680,865
182139,40,1683,893
182178,40,1663,884
182219,33,1671,894
182290,36,1668,886
182298,37,1672,896
182339,39,1668,878
182379,44,1673,877
182419,36,1672,878
182490,44,1658,897
182500,30,1664,900
182550,52,1671,888
182611,37,1670,872
182621,28,1683,884
182694,49,1672,896
182703,38,1674,886
182739,35,1677,884
182779,35,1665,895
182819,42,1667,894
182860,37,1664,894
182899,34,1672,895
182939,45,1673,890
182979,44,1675,881
183019,42,1665,871
183090,38,1677,878
183099,47,1675,884
183167,41,1668,898
183181,31,1665,893
183232,48,1677,879
183292,34,1667,895
183301,38,1664,900
183351,33,1671,897
183379,41,1680,898
183419,31,1668,906
183502,22,1658,885
183510,54,1658,880
183539,32,1662,885
183579,50,1669,903
183620,31,1657,892
183660,49,1667,876
183699,32,1655,897
183739,25,1660,893
183779,26,1657,895
183820,39,1663,879
183932,49,1661,875
183942,38,1658,868
183991,51,1679,892
184040,36,1673,900
184053,39,1669,889
184134,33,1670,887
184139,26,1659,875
184143,44,1662,889
184179,60,1649,880
184220,47,1666,902
184285,39,1675,880
184292,40,1665,888
184339,44,1668,888
184379,45,1676,904
184419,35,1667,886
184459,51,1662,891
184499,34,1670,884
184539,44,1659,860
184579,41,1669,881
184619,42,1671,892
184731,11,1702,837
184776,19,1717,868
184785,29,1663,861
184790,32,1660,864
184820,43,1655,867
184861,29,1690,854
184940,102,1654,939
184950,76,1608,959
184981,-5,1632,875
185020,-12,1746,779
185089,56,1609,927
185127,62,1652,901
185141,41,1664,883
185180,23,1655,883
185220,27,1711,854
185260,40,1677,887
185300,19,1687,887
185340,53,1671,901
185380,31,1627,928
185420,31,1729,844
185486,57,1526,975
185501,45,1587,943
185540,30,1686,890
185581,53,1668,907
185620,53,1693,1002
185723,58,1574,960
185740,34,1581,942
185791,36,1678,885
185801,40,1650,902
185820,42,1620,915
185861,45,1665,902
185944,41,1656,916
185952,43,1654,916
185981,40,1643,946
186020,28,1681,894
186061,25,1610,910
186100,20,1652,903
186141,46,1708,882
186180,33,1668,884
186221,44,1669,889
186293,35,1675,889
186300,33,1670,888
186345,43,1665,887
186392,38,1671,867
186451,36,1662,895
186463,34,1673,904
186500,44,1639,906
186540,37,1646,892
186581,33,1672,896
186620,30,1649,913
186687,35,1671,896
186701,45,1663,878
186741,41,1664,904
186781,48,1659,912
186821,25,1633,914
186861,37,1677,894
186901,31,1662,881
186941,35,1660,904
187008,55,1672,883
187012,48,1663,890
187058,27,1659,917
187113,24,1689,886
187166,38,1669,896
187182,35,1657,876
187231,38,1676,894
187261,40,1675,875
187301,42,1663,874
187341,32,1674,866
187381,41,1658,878
187421,50,1672,903
187486,38,1668,881
187501,36,1661,892
187541,43,1672,901
187581,43,1657,867
187621,37,1664,870
187661,41,1651,893
187701,40,1657,881
187767,48,1668,880
187773,36,1660,882
187824,37,1659,875
187917,29,1668,900
187922,41,1688,887
187933,33,1670,872
187984,56,1671,898
188021,35,1679,875
188061,40,1670,887
188101,43,1686,874
188142,45,1660,884
188182,49,1678,883
188222,37,1682,883
188293,50,1666,887
188303,49,1674,883
188341,45,1654,899
188382,46,1667,875
188421,42,1669,874
188462,48,1676,883
188534,31,1661,885
188575,26,1687,886
188580,40,1667,888
188625,22,1646,904
188661,37,1652,907
188714,41,1655,891
188741,29,1671,911
188781,34,1671,898
188821,34,1672,887
188861,27,1637,896
188903,53,1667,897
188933,32,1670,885
188982,44,1680,899
189023,25,1661,915
189084,28,1653,891
189094,26,1663,907
189133,30,1672,901
189187,51,1691,895
189235,58,1628,910
189284,42,1648,899
189302,33,1673,877
189333,32,1658,912
189372,31,1667,894
189428,26,1675,902
189452,43,1649,896
189493,47,1678,894
189533,33,1668,910
189585,41,1664,913
189613,29,1674,894
189662,35,1671,907
189693,42,1662,915
189743,37,1675,890
189782,26,1663,898
189822,38,1669,908
189894,50,1669,899
189903,46,1674,888
189942,40,1665,883
189982,42,1665,896
190013,26,1667,884
190086,45,1666,889
190093,33,1673,888
190147,36,1666,895
190213,36,1659,910
190224,36,1664,887
190297,36,1675,876
190303,35,1677,878
190333,48,1666,881
190383,28,1672,881
190423,40,1670,880
190463,34,1655,877
190503,27,1681,892
190543,39,1672,878
190573,44,1669,888
190613,35,1660,896
190697,42,1653,904
190703,36,1668,882
190774,61,1652,866
190785,34,1665,899
190825,38,1671,882
190854,30,1663,881
190919,35,1666,891
190967,48,1678,872
190975,48,1665,878
191013,39,1672,874
191053,37,1661,896
191116,28,1669,883
191133,38,1659,876
191173,50,1663,883
191213,29,1651,875
191253,37,1651,884
191293,33,1655,868
191333,32,1654,901
191374,43,1667,872
191414,27,1673,884
191478,33,1673,878
191527,36,1656,900
191536,31,1659,897
191598,36,1678,877
191685,38,1669,889
191689,42,1669,882
191694,40,1660,877
191734,38,1642,881
191774,35,1680,878
191813,40,1659,891
191880,35,1667,882
191895,56,1660,888
191933,31,1672,897
191974,45,1661,872
192014,50,1672,868
192054,36,1667,910
192094,51,1672,898
192134,40,1660,902
192174,27,1664,897
192245,44,1686,888
192292,31,1677,887
192305,45,1644,906
192416,32,1647,879
192423,53,1657,882
192433,6,1702,916
192453,61,1642,904
192493,55,1639,871
192533,41,1659,897
192573,61,1652,885
192613,50,1642,879
192678,49,1656,881
192694,32,1656,872
192733,40,1658,900
192773,32,1665,888
192813,41,1660,907
192853,33,1683,877
192895,39,1684,901
192966,39,1673,885
192977,35,1671,899
193025,31,1679,867
193068,39,1656,903
193125,35,1671,886
193177,25,1658,902
193185,42,1666,887
193215,51,1676,886
193254,31,1672,901
193294,36,1645,882
193334,39,1673,874
193374,35,1654,893
193414,50,1673,890
193487,41,1683,884
193496,37,1666,903
193534,49,1680,890
193574,40,1663,886
193614,49,1666,901
193654,50,1684,888
193767,38,1668,889
193776,32,1675,888
193786,39,1672,884
193837,33,1669,879
193854,36,1669,875
193928,46,1671,875
193935,39,1675,885
193974,31,1673,876
194014,32,1670,871
194094,42,1678,882
194105,38,1677,881
194134,40,1665,887
194174,43,1669,865
194214,47,1661,866
194254,33,1674,871
194294,34,1688,878
194334,35,1678,893
194387,32,1681,887
194438,44,1688,886
194488,54,1668,884
194498,38,1662,888
194547,39,1663,898
194574,41,1664,870
194614,45,1671,876
194655,37,1653,884
194698,33,1675,878
194734,52,1656,884
194774,31,1670,872
194814,40,1682,877
194854,28,1672,872
194894,50,1666,889
194934,43,1667,855
194975,47,1686,861
195015,44,1656,894
195079,45,1679,867
195128,39,1669,888
195135,54,1650,898
195177,42,1669,862
195235,28,1683,875
195275,43,1676,877
195295,48,1664,866
195335,36,1649,877
195375,53,1680,864
195415,37,1663,887
195477,24,1683,886
195495,29,1668,881
195535,56,1676,863
195575,40,1666,891
195615,35,1687,883
195655,56,1683,880
195695,44,1692,878
195735,41,1683,883
195775,52,1682,877
195817,36,1674,867
195909,49,1672,887
195917,54,1665,888
195972,37,1681,871
195975,40,1682,891
196015,42,1677,881
196055,44,1687,887
196095,44,1683,880
196135,32,1674,878
196175,42,1685,878
196215,39,1677,889
196281,48,1663,893
196297,36,1671,892
196335,33,1684,878
196375,51,1677,876
196415,34,1677,894
196455,33,1670,876
196516,38,1665,868
196568,48,1675,870
196576,48,1672,869
196620,41,1691,880
196655,42,1677,888
196712,44,1681,870
196736,44,1678,848
196776,49,1677,875
196815,35,1671,882
196855,34,1685,874
196895,48,1668,867
196935,37,1692,868
196975,41,1678,870
197015,53,1668,864
197080,38,1680,870
197097,45,1673,869
197166,47,1656,888
197177,37,1674,878
197229,46,1690,859
197271,33,1673,876
197297,59,1682,882
197336,42,1683,866
197376,35,1684,868
197416,33,1671,862
197481,52,1686,869
197509,45,1683,880
197536,47,1674,869
197576,53,1681,861
197617,50,1674,870
197656,53,1668,863
197697,47,1669,858
197736,49,1686,865
197777,43,1670,850
197837,39,1670,864
197888,39,1677,858
197899,49,1671,861
197954,39,1676,872
198011,49,1677,852
198015,55,1662,864
198056,39,1668,881
198097,49,1672,868
198136,56,1673,886
198176,48,1686,843
198216,45,1666,882
198288,32,1681,880
198298,48,1661,872
198337,49,1684,889
198376,44,1678,854
198417,51,1673,876
198456,50,1666,878
198497,42,1685,885
198536,48,1686,870
198579,39,1670,874
198616,50,1677,872
198656,53,1672,867
198697,42,1682,866
198749,48,1673,853
198776,49,1684,876
198817,34,1658,890
198856,54,1680,862
198908,40,1662,890
198960,52,1688,896
199020,39,1662,882
199059,43,1664,874
199070,49,1673,878
199127,45,1677,871
199137,32,1679,881
199213,47,1675,870
199216,35,1665,880
199258,52,1660,885
199297,54,1698,845
199337,51,1681,889
199377,53,1700,878
199418,50,1687,873
199483,32,1658,899
199498,44,1684,883
199537,57,1681,867
199577,32,1689,889
199618,34,1666,878
199670,51,1673,863
199722,33,1675,862
199768,55,1678,875
199777,44,1683,877
199818,40,1676,867
199858,35,1678,882
199914,36,1675,864
199939,40,1668,881
199978,41,1681,882
200018,53,1684,871
200058,34,1679,868
200097,43,1679,873
200138,46,1669,881
200178,37,1699,861
200218,46,1670,878
200288,38,1680,859
200333,39,1685,864
200344,46,1687,873
200399,47,1661,873
200419,49,1681,879
200470,55,1680,873
200498,43,1678,876
200537,55,1698,869
200577,42,1680,869
200618,59,1686,874
200684,56,1677,880
200698,37,1691,860
200737,33,1711,851
200777,41,1689,858
200817,42,1693,852
200857,46,1697,863
200897,44,1684,863
200937,57,1694,871
201020,41,1681,856
201032,44,1689,856
201121,52,1676,856
201160,48,1681,863
201179,41,1676,880
201189,38,1663,869
201240,56,1683,864
201258,52,1677,849
201299,42,1682,862
201339,42,1682,873
201379,48,1687,874
201419,45,1674,864
201490,38,1676,890
201499,45,1673,868
201539,41,1690,855
201579,44,1663,860
201619,46,1675,880
201659,52,1694,861
201699,59,1678,860
201739,49,1675,880
201793,51,1688,859
201841,47,1688,871
201883,45,1673,872
201901,47,1673,868
201954,48,1679,872
201978,41,1679,861
202018,38,1668,867
202058,60,1687,857
202098,44,1665,875
202138,45,1692,871
202178,55,1675,863
202218,50,1696,865
202290,49,1676,863
202301,45,1683,853
202348,61,1688,872
202378,42,1680,872
202418,51,1694,862
202458,35,1690,868
202530,53,1682,856
202575,44,1677,873
202579,53,1664,876
202641,53,1689,864
202683,56,1690,850
202728,37,1677,856
202741,33,1676,862
202778,64,1689,850
202818,40,1684,855
202868,50,1685,858
202898,62,1684,872
202939,56,1695,855
202979,39,1678,867
203019,38,1678,860
203089,47,1688,873
203102,31,1686,866
203139,27,1679,881
203179,49,1696,850
203239,38,1665,868
203258,45,1689,859
203298,52,1684,869
203339,49,1682,871
203390,47,1682,874
203420,43,1700,864
203460,39,1678,885
203541,45,1684,876
203552,48,1667,856
203601,40,1685,857
203660,47,1682,866
203706,45,1683,871
203710,52,1677,883
203739,51,1684,868
203779,53,1675,873
203819,34,1688,853
203890,64,1681,855
203901,45,1691,879
203939,38,1679,866
203979,42,1686,861
204019,49,1677,868
204059,50,1686,890
204100,43,1673,873
204139,54,1682,869
204179,31,1692,880
204252,63,1670,883
204303,31,1658,882
204312,40,1669,878
204366,53,1715,848
204413,33,1648,886
204419,33,1652,868
204459,60,1702,835
204499,54,1678,884
204540,35,1690,848
204579,42,1671,858
204619,39,1687,851
204685,50,1674,860
204701,43,1696,855
204740,43,1693,860
204779,56,1659,868
204819,53,1683,856
204859,53,1679,862
204899,50,1676,863
204964,45,1698,843
205016,51,1684,857
205021,55,1684,850
205064,42,1677,877
205115,35,1674,867
205132,38,1681,864
205180,59,1689,872
205220,47,1667,880
205260,59,1683,857
205301,58,1673,867
205341,51,1661,880
205380,42,1684,847
205421,53,1711,830
205493,60,1669,875
205501,54,1654,854
205541,34,1723,826
205581,43,1703,857
205621,57,1669,863
205672,43,1688,851
205741,48,1679,872
205751,37,1672,886
205793,27,1665,868
205820,61,1686,864
205861,32,1668,896
205927,46,1665,901
205942,47,1656,888
205983,30,1693,855
206021,32,1695,860
206060,40,1646,882
206101,43,1691,861
206140,49,1677,863
206180,66,1656,893
206220,68,1653,895
206284,25,1692,859
206300,21,1715,846
206364,48,1656,886
206415,31,1632,872
206421,25,1639,875
206482,69,1729,853
206528,62,1746,871
206540,48,1682,854
206580,17,1735,841
206620,40,1717,823
206684,32,1659,883
206700,47,1680,862
206741,26,1692,857
206780,49,1701,842
206820,23,1670,874
206860,30,1640,906
206900,46,1699,852
206941,38,1705,753
206981,50,1649,867
207020,39,1624,875
207077,19,1776,829
207124,9,1634,871
207182,100,1708,808
207227,-16,1696,848
207231,-22,1678,859
207281,34,1552,804
207301,21,1793,802
207341,53,1704,831
207381,-9,1680,824
207421,106,1757,788
207492,27,1647,844
207501,31,1684,820
207551,65,1734,812
207582,52,1715,807
207622,33,1688,817
207662,81,1763,808
207702,45,1698,802
207742,43,1711,816
207822,43,1699,790
207835,44,1718,810
207912,38,1699,791
207921,63,1772,791
207942,45,1734,760
207982,29,1711,788
208023,66,1702,780
208063,49,1720,796
208101,45,1718,790
208141,43,1740,769
208219,37,1714,793
208224,47,1723,818
208261,50,1709,803
208301,32,1720,795
208341,41,1713,817
208394,37,1687,830
208421,39,1694,816
208461,39,1705,790
208501,41,1716,820
208541,32,1706,828
208581,46,1698,849
208622,32,1705,815
208685,41,1713,796
208692,49,1714,806
208774,52,1742,801
208784,62,1725,786
208834,43,1711,813
208884,38,1744,788
208893,48,1717,781
208943,41,1709,808
208982,42,1715,786
209013,39,1745,783
209094,53,1717,804
209103,51,1696,815
209142,50,1721,788
209183,49,1711,806
209213,33,1739,787
209262,42,1719,793
209293,48,1734,792
209333,48,1711,792
209373,41,1726,811
209434,46,1726,781
209484,30,1716,813
209494,30,1720,821
209545,51,1736,800
209603,38,1711,809
209622,43,1731,795
209653,58,1732,785
209703,37,1699,790
209742,42,1729,792
209782,34,1730,788
209823,50,1723,810
209894,34,1713,797
209902,46,1704,795
209933,42,1730,801
209973,43,1708,810
210022,36,1713,791
210062,49,1729,787
210102,37,1726,804
210154,65,1732,774
210206,38,1744,785
210214,46,1729,809
210265,31,1716,788
210324,60,1725,786
210366,43,1735,792
210375,36,1716,773
210433,157,1567,780
210453,72,1799,799
210502,22,1754,774
210543,52,1764,750
210583,42,1741,754
210613,43,1743,767
210694,41,1744,766
210702,41,1737,774
210733,56,1726,765
210773,40,1751,755
210813,37,1745,768
210854,26,1745,775
210893,29,1722,774
210966,44,1730,774
210975,45,1740,779
211024,52,1747,762
211112,37,1729,781
211156,38,1758,773
211161,46,1741,761
211173,48,1746,759
211213,44,1721,765
211254,41,1721,764
211294,37,1734,785
211333,42,1724,795
211373,39,1731,776
211414,45,1726,770
211479,39,1736,771
211493,52,1723,794
211533,34,1733,781
211573,44,1734,776
211613,32,1735,774
211654,38,1746,761
211714,45,1731,793
211794,34,1724,781
211805,47,1744,773
211813,41,1738,771
211853,44,1712,784
211893,33,1732,785
211945,38,1743,778
211974,37,1724,771
212014,49,1736,782
212053,42,1739,769
212093,34,1731,773
212133,47,1731,769
212173,42,1727,777
212224,38,1737,778
212276,35,1741,780
212294,40,1729,771
212355,53,1733,767
212400,40,1733,771
212414,35,1727,766
212454,48,1736,787
212494,43,1735,784
212544,48,1728,774
212574,28,1731,774
212613,48,1728,776
212685,33,1741,748
212739,51,1745,770
212747,46,1727,778
212775,48,1742,760
212814,41,1737,779
212854,29,1742,771
212894,48,1750,776
212934,50,1722,771
212974,38,1735,775
213014,53,1736,746
213077,42,1735,779
213095,40,1719,767
213135,34,1730,781
213175,40,1738,761
213215,49,1742,774
213286,43,1727,768
213297,49,1732,778
213346,56,1736,780
213397,38,1730,805
213414,50,1729,771
213488,45,1740,763
213497,53,1749,794
213534,51,1739,769
213575,50,1739,776
213615,40,1725,770
213655,39,1731,768
213695,42,1741,774
213735,38,1742,774
213775,39,1735,785
213815,50,1744,793
213879,44,1727,752
213894,44,1739,776
213957,51,1738,787
214005,58,1736,768
214015,43,1748,778
214070,40,1733,780
214120,44,1728,752
214134,36,1738,782
214174,46,1738,786
214214,36,1734,770
214285,45,1726,782
214294,43,1724,786
214334,46,1736,781
214374,35,1745,771
214414,31,1733,764
214454,42,1725,793
214494,42,1743,756
214535,56,1734,781
214574,50,1738,781
214614,42,1729,778
214667,34,1736,772
214717,28,1734,779
214769,47,1730,767
214777,46,1714,792
214817,38,1723,776
214865,37,1730,767
214895,42,1729,764
214935,60,1736,785
214975,47,1723,765
215015,36,1739,787
215088,46,1723,762
215096,38,1732,746
215135,50,1738,766
215175,32,1733,767
215215,44,1725,768
215255,45,1729,764
215295,44,1743,759
215335,46,1722,771
215407,33,1741,772
215417,58,1708,776
215507,42,1730,781
215550,43,1721,768
215562,47,1747,756
215576,52,1726,779
215615,42,1724,775
215655,59,1747,759
215695,56,1741,778
215735,50,1740,773
215775,53,1731,768
215815,39,1751,767
215887,56,1719,772
215897,47,1716,779
215935,32,1725,770
215975,38,1735,745
216015,54,1741,773
216055,29,1732,778
216109,40,1746,749
216168,54,1728,772
216217,42,1732,775
216226,45,1713,756
216255,61,1736,767
216308,32,1726,771
216335,41,1733,778
216375,60,1751,763
216415,47,1730,782
216455,49,1729,781
216495,48,1733,780
216535,35,1735,768
216575,61,1752,780
216616,44,1730,778
216680,41,1741,783
216697,49,1724,769
216776,42,1738,785
216828,51,1731,778
216878,43,1743,774
216887,41,1739,769
216897,47,1738,776
216936,56,1740,773
216977,39,1735,782
217028,44,1730,782
217055,44,1743,771
217097,48,1724,770
217137,47,1745,770
217189,31,1733,759
217216,43,1728,780
217256,54,1734,777
217296,49,1736,777
217336,45,1716,776
217376,56,1746,779
217416,38,1727,793
217482,56,1742,777
217497,48,1747,751
217536,33,1726,785
217576,44,1729,789
217616,40,1734,781
217656,43,1728,795
217699,40,1722,765
217767,50,1755,790
217777,38,1753,765
217818,50,1713,792
217856,53,1733,793
217919,53,1725,773
217937,39,1732,788
217976,49,1733,770
218016,42,1729,757
218056,49,1732,779
218096,51,1730,791
218136,44,1748,773
218176,40,1747,780
218216,43,1731,780
218282,45,1728,771
218298,41,1726,762
218336,63,1736,778
218382,43,1730,770
218488,50,1730,785
218500,53,1721,775
218572,47,1734,750
218583,47,1733,767
218588,49,1737,769
218632,55,1743,783
218658,45,1726,785
218738,51,1736,769
218748,33,1730,775
218777,50,1728,768
218817,50,1751,766
218857,47,1717,788
218897,51,1734,780
218937,52,1730,766
218977,34,1726,784
219017,47,1736,780
219088,41,1743,775
219098,40,1737,783
219137,45,1731,787
219181,45,1739,783
219263,46,1727,790
219277,52,1729,760
219297,49,1748,774
219337,33,1733,776
219377,47,1746,775
219417,52,1736,780
219483,45,1736,781
219498,54,1741,783
219538,51,1730,787
219577,43,1741,759
219618,47,1735,781
219657,52,1735,787
219698,53,1735,775
219737,56,1724,763
219813,47,1741,761
219849,47,1737,769
219891,55,1727,784
219900,55,1738,761
219961,51,1739,780
219977,51,1746,773
220018,47,1739,778
220057,51,1730,785
220098,54,1748,777
220137,40,1737,767
220177,44,1734,775
220217,50,1735,780
220283,56,1744,791
220298,42,1734,762
220338,54,1732,775
220377,45,1722,776
220418,44,1730,793
220458,54,1751,765
220512,53,1749,779
220560,43,1730,781
220614,54,1737,789
220619,48,1723,800
220659,47,1725,776
220699,38,1747,780
220738,42,1728,795
220778,48,1738,777
220819,39,1722,789
220858,56,1733,776
220899,39,1725,793
220938,53,1729,786
220978,41,1737,783
221018,36,1715,787
221082,37,1733,772
221100,41,1744,797
221169,39,1736,799
221210,53,1726,767
221271,51,1733,775
221279,54,1736,769
221298,50,1733,783
221339,53,1735,768
221378,46,1728,784
221419,40,1741,764
221484,39,1720,766
221499,49,1733,782
221539,37,1731,787
221578,31,1722,776
221640,51,1747,788
221660,54,1739,758
221699,56,1741,771
221738,54,1715,775
221778,33,1738,777
221823,49,1725,774
221880,52,1723,778
221933,30,1729,770
221940,41,1728,775
222023,31,1733,761
222028,53,1736,785
222058,55,1747,763
222099,44,1738,771
222139,53,1734,775
222179,53,1731,771
222219,49,1734,757
222289,45,1732,785
222300,47,1732,775
222339,45,1720,779
222379,47,1740,770
222418,36,1720,764
222458,41,1731,778
222500,58,1745,750
222573,41,1743,764
222580,48,1732,779
222629,52,1725,764
222681,51,1734,784
222731,46,1737,759
222780,46,1733,779
222789,48,1728,776
222820,51,1740,767
222860,39,1727,765
222899,40,1747,780
222940,55,1739,780
222980,48,1729,757
223020,44,1742,764
223091,33,1717,773
223099,58,1731,768
223140,46,1737,758
223180,33,1737,772
223220,48,1739,777
223260,43,1736,766
223322,56,1741,777
223373,45,1736,788
223413,39,1747,769
223421,68,1723,791
223459,53,1727,785
223516,42,1722,782
223540,46,1735,781
223579,65,1743,794
223619,38,1736,784
223659,46,1744,796
223699,47,1740,779
223739,45,1738,778
223779,47,1724,780
223819,39,1730,785
223885,43,1737,769
223902,38,1738,776
223964,57,1735,784
224023,58,1734,783
224073,41,1757,759
224079,39,1735,772
224099,47,1717,785
224139,35,1738,777
224179,54,1735,795
224219,50,1732,768
224285,39,1723,776
224301,34,1718,779
224340,45,1730,769
224380,39,1737,779
224420,44,1722,777
224460,49,1727,756
224500,38,1720,778
224540,41,1723,785
224625,50,1728,778
224630,56,1746,781
224680,42,1733,789
224732,47,1731,779
224742,51,1736,787
224791,44,1736,773
224821,44,1734,763
224860,37,1730,777
224900,38,1736,773
224940,53,1726,778
224980,39,1725,777
225020,54,1745,778
225092,47,1725,763
225102,34,1736,785
225140,52,1739,784
225180,54,1733,789
225220,52,1735,776
225260,47,1746,771
225300,47,1732,785
225342,57,1741,765
225422,35,1734,777
225462,55,1741,760
225467,46,1742,780
225534,46,1730,776
225550,42,1751,784
225581,54,1742,778
225621,37,1741,767
225660,26,1727,766
225701,58,1740,782
225741,44,1728,775
225780,45,1739,787
225821,50,1741,768
225891,63,1742,769
225902,49,1728,780
225941,45,1730,787
225981,43,1735,784
226020,39,1736,784
226086,48,1726,777
226101,50,1722,766
226141,56,1735,760
226180,54,1733,773
226255,52,1728,778
226260,45,1732,789
226301,42,1740,790
226342,35,1740,786
226403,67,1733,783
226462,38,1740,780
226505,44,1730,769
226514,46,1740,768
226554,47,1732,776
226573,45,1724,772
226621,43,1738,766
226695,48,1729,784
226699,40,1725,796
226742,50,1732,785
226781,50,1729,789
226821,35,1722,765
226861,40,1722,778
226901,55,1743,787
226941,39,1730,786
226981,51,1738,776
227021,44,1742,774
227087,53,1737,798
227094,42,1738,789
227163,51,1729,783
227172,55,1740,764
227222,44,1714,764
227265,60,1735,776
227314,50,1729,779
227341,39,1729,802
227381,52,1724,778
227422,52,1733,780
227486,43,1730,782
227493,49,1730,767
227541,43,1729,780
227581,55,1732,776
227621,40,1731,773
227661,58,1743,796
227701,52,1720,783
227741,47,1740,782
227781,72,1731,790
227855,40,1720,774
227903,47,1750,781
227912,47,1748,768
227973,51,1732,789
228023,49,1737,765
228031,49,1744,767
228061,50,1735,783
228102,50,1741,777
228142,34,1738,784
228173,48,1738,771
228213,44,1749,775
228295,39,1731,784
228304,52,1741,764
228333,53,1744,774
228383,48,1708,778
228413,42,1732,776
228453,60,1742,786
228503,43,1743,776
228566,37,1735,774
228576,46,1739,782
228626,43,1740,777
228678,58,1737,774
228734,35,1744,779
228743,31,1740,782
228783,42,1736,759
228822,46,1727,769
228853,45,1740,771
228903,56,1713,795
228943,58,1742,776
228983,47,1721,786
229022,46,1728,779
229094,40,1721,773
229103,41,1733,789
229143,67,1724,771
229173,47,1723,779
229222,52,1749,769
229285,60,1730,767
229329,49,1724,778
229334,47,1737,793
229384,54,1722,779
229412,66,1729,770
229485,59,1729,768
229494,45,1715,767
229542,33,1731,798
229582,40,1723,797
229623,59,1740,781
229653,50,1737,793
229702,35,1733,784
229742,38,1735,775
229783,46,1735,765
229822,51,1732,781
229886,50,1714,784
229893,38,1715,782
229946,48,1728,778
230005,43,1725,787
230015,56,1725,807
230105,56,1735,777
230115,35,1734,800
230154,53,1721,788
230173,46,1735,771
230213,54,1730,786
230253,55,1735,796
230305,43,1731,780
230333,49,1727,784
230374,53,1717,806
230413,43,1745,776
230453,46,1725,772
230493,47,1728,790
230533,44,1741,763
230573,58,1720,788
230614,41,1743,783
230677,51,1718,786
230724,56,1737,764
230736,47,1732,796
230774,43,1737,770
230813,59,1724,790
230875,52,1737,767
230895,46,1716,779
230934,58,1735,775
230974,49,1727,777
231020,56,1739,765
231075,44,1732,780
231124,46,1748,785
231137,65,1727,774
231173,30,1730,781
231213,54,1740,785
231253,45,1731,790
231294,49,1740,780
231333,56,1739,761
231373,44,1734,785
231414,46,1722,775
231479,38,1748,783
231495,48,1736,784
231533,48,1726,763
231574,51,1740,780
231613,46,1728,773
231688,41,1728,788
231694,60,1733,787
231746,48,1724,780
231799,43,1744,780
231814,53,1743,785
231854,44,1736,793
231898,51,1746,772
231934,46,1739,788
231975,42,1732,790
232014,39,1728,772
232054,53,1732,770
232095,54,1743,776
232134,40,1731,792
232175,62,1739,780
232214,53,1719,784
232284,52,1728,796
232297,47,1728,792
232350,46,1732,798
232398,43,1740,770
232414,47,1731,777
232467,60,1729,776
232494,47,1733,774
232534,47,1729,788
232574,50,1741,787
232615,58,1734,794
232686,55,1741,780
232695,48,1741,799
232734,41,1712,777
232774,49,1743,768
232815,46,1727,788
232854,52,1728,781
232894,51,1722,790
232934,49,1732,774
232975,51,1723,780
233018,52,1729,764
233078,54,1730,780
233136,43,1737,775
233145,57,1747,784
233191,36,1728,781
233216,45,1744,781
233254,42,1722,788
233295,57,1735,778
233334,53,1734,782
233374,44,1711,768
233414,41,1723,785
233485,34,1727,806
233495,49,1734,783
233534,41,1734,801
233575,55,1726,805
233615,43,1730,806
233655,44,1709,768
233695,56,1724,773
233766,51,1730,794
233778,47,1731,767
233821,45,1720,787
233918,46,1727,780
233931,42,1732,783
233935,47,1719,777
233988,53,1748,787
234045,49,1713,800
234055,42,1738,787
234096,49,1747,765
234135,39,1725,783
234175,59,1732,808
234215,58,1724,773
234298,48,1735,782
234306,54,1735,771
234335,37,1719,784
234376,56,1736,775
234415,60,1722,784
234455,48,1740,763
234495,58,1747,778
234535,59,1726,774
234586,49,1717,794
234640,47,1732,785
234681,46,1742,779
234697,51,1731,773
234758,41,1729,797
234775,39,1722,779
234815,53,1729,783
234855,42,1729,778
234895,49,1724,796
234935,41,1739,767
234975,56,1741,777
235015,50,1739,774
235080,50,1744,779
235096,52,1737,770
235135,41,1737,793
235175,29,1736,791
235215,51,1743,789
235255,43,1743,791
235308,44,1720,783
235377,51,1731,784
235387,53,1724,791
235415,48,1729,792
235457,36,1740,779
235497,43,1736,769
235546,63,1736,791
235575,44,1730,786
235616,42,1738,808
235691,52,1727,772
235696,45,1747,771
235746,43,1723,777
235775,63,1740,783
235815,48,1731,798
235855,32,1740,785
235895,47,1740,770
235935,51,1729,788
235998,54,1731,798
236018,49,1720,783
236056,57,1746,778
236097,44,1716,796
236137,55,1735,790
236177,44,1727,789
236217,51,1723,792
236288,54,1726,799
236330,61,1727,797
236334,49,1728,777
236401,37,1722,789
236459,38,1728,800
236467,62,1730,779
236520,53,1732,780
236536,47,1720,790
236576,49,1736,776
236616,44,1722,792
236688,56,1747,771
236709,63,1737,798
236736,56,1731,785
236776,50,1721,790
236816,41,1731,785
236856,54,1729,783
236896,47,1717,794
236936,58,1730,783
236976,50,1719,780
237016,57,1729,766
237105,46,1737,791
237111,43,1737,786
237179,49,1741,788
237229,40,1719,779
237237,41,1727,802
237293,49,1736,783
237294,47,1730,779
237336,50,1729,786
237376,45,1737,772
237416,56,1723,790
237487,50,1747,786
237496,37,1728,785
237536,54,1724,794
237576,51,1732,782
237616,55,1718,776
237656,60,1739,778
237696,39,1716,777
237736,52,1735,784
237777,57,1724,757
237900,59,1723,779
237944,50,1735,774
237958,54,1743,779
237968,55,1737,776
238053,66,1729,772
238057,56,1731,784
238062,43,1721,779
238118,43,1729,794
238137,56,1733,787
238177,37,1724,775
238217,59,1746,780
238281,51,1726,791
238297,32,1733,795
238337,51,1736,773
238377,40,1739,799
238417,58,1733,785
238457,52,1731,792
238497,54,1725,795
238537,49,1733,791
238577,55,1739,795
238691,65,1732,787
238696,47,1738,800
238700,46,1734,785
238754,46,1733,788
238789,47,1723,785
238817,50,1744,785
238857,48,1746,783
238897,46,1741,788
238937,40,1748,784
238977,54,1721,776
239017,49,1722,776
239089,58,1727,784
239097,57,1728,800
239138,32,1732,791
239177,51,1724,763
239217,58,1723,793
239257,52,1723,799
239297,59,1727,788
239350,52,1734,787
239399,38,1727,796
239443,53,1736,789
239491,40,1731,763
239500,43,1727,792
239537,45,1734,784
239577,50,1733,786
239618,46,1744,766
239657,54,1722,775
239698,46,1749,771
239738,56,1740,774
239778,55,1735,788
239818,42,1728,787
239888,59,1730,788
239899,44,1733,771
239938,49,1729,788
239993,58,1746,771
240050,50,1739,784
240058,51,1718,779
240098,61,1720,779
240139,54,1745,783
240208,56,1735,778
240228,38,1732,767
240259,49,1728,794
240308,56,1726,773
240372,50,1726,792
240376,52,1717,796
240430,37,1736,791
240458,44,1715,785
240498,51,1727,785
240538,46,1727,783
240578,60,1732,793
240618,49,1728,793
240690,58,1737,778
240699,44,1741,776
240738,37,1719,777
240778,50,1733,782
240818,49,1726,786
240858,57,1723,770
240898,47,1738,778
240938,45,1712,772
240992,50,1725,784
241042,47,1737,779
241101,66,1739,772
241152,40,1728,776
241159,34,1728,782
241178,48,1737,773
241218,48,1713,787
241258,38,1718,788
241299,42,1730,782
241338,57,1730,763
241379,47,1732,798
241418,51,1727,795
241490,50,1737,799
241499,48,1731,796
241540,49,1718,778
241579,55,1726,779
241619,65,1736,783
241659,52,1724,792
241714,33,1731,784
241763,47,1727,802
241779,59,1738,792
241823,38,1731,787
241881,53,1743,794
241928,51,1739,795
241972,56,1734,785
241981,41,1733,782
242019,44,1732,802
242059,49,1731,787
242099,45,1732,782
242140,47,1734,796
242180,42,1731,785
242219,42,1720,780
242290,44,1735,764
242300,56,1738,785
242339,61,1734,771
242379,48,1731,787
242420,58,1737,785
242459,43,1723,788
242520,57,1745,778
242581,35,1726,782
242630,49,1733,783
242639,70,1715,796
242660,56,1736,802
242699,60,1739,800
242762,59,1737,788
242779,51,1738,774
242819,58,1724,789
242860,37,1747,753
242899,52,1732,791
242940,30,1739,789
242979,36,1753,768
243020,56,1738,774
243091,36,1710,805
243100,36,1722,794
243164,55,1716,796
243173,32,1732,786
243233,49,1730,786
243273,61,1728,771
243300,50,1736,803
243340,41,1733,790
243380,37,1738,785
243420,56,1706,800
243492,43,1721,773
243500,69,1716,791
243540,52,1716,786
243580,44,1735,774
243620,37,1724,782
243660,40,1740,782
243700,56,1729,778
243740,38,1737,775
243780,54,1722,778
243832,49,1743,779
243926,48,1739,785
243931,33,1743,785
243937,42,1738,772
244006,51,1725,797
244020,54,1731,787
244060,40,1724,786
244100,41,1752,752
244141,48,1721,789
244180,40,1730,787
244221,40,1723,781
244292,42,1721,802
244311,40,1730,788
244340,43,1732,817
244381,43,1749,797
244421,51,1728,789
244461,54,1741,768
244501,55,1721,802
244557,49,1721,805
244572,42,1718,796
244662,49,1710,788
244712,40,1712,777
244722,33,1726,791
244740,41,1707,799
244782,50,1709,791
244821,50,1720,810
244871,48,1736,791
244901,57,1741,790
244941,55,1714,804
244981,48,1736,785
245034,47,1730,789
245061,40,1715,805
245101,38,1722,795
245141,39,1720,798
245195,57,1698,797
245212,31,1714,817
245252,50,1734,797
245302,27,1717,781
245342,45,1727,779
245382,39,1707,800
245422,62,1724,821
245493,36,1744,803
245501,44,1748,797
245542,49,1698,799
245592,32,1681,833
245644,35,1814,740
245654,41,1820,742
245702,52,1650,833
245755,32,1740,804
245781,55,1745,785
245822,33,1700,832
245906,51,1701,823
245913,37,1699,832
245941,28,1707,820
245982,38,1705,820
246021,50,1710,825
246062,29,1710,816
246102,33,1696,836
246142,34,1714,834
246182,40,1715,819
246221,35,1713,814
