elapsed_ms,ax,ay,az
175890,-1002,1172,976
175940,-1059,932,979
175959,-844,1180,874
175999,-1036,1428,1065
176039,-511,1619,852
176079,-1251,503,1331
176119,-1164,908,1197
176159,-1130,752,1131
176200,-1118,603,1115
176239,-1263,760,1172
176280,-1174,851,1115
176340,-1076,500,1439
176350,-1028,552,1378
176419,-1086,626,1301
176431,-1193,670,1248
176484,-892,878,1185
176551,-745,439,1256
176560,-692,606,1025
176601,-1182,739,1067
176650,-984,817,1126
176681,-1107,937,1177
176741,-1320,778,1283
176753,-1008,914,1178
176801,-1199,803,1139
176841,-874,2340,957
176881,-1138,819,945
176920,-1349,807,984
176961,-1311,1012,1043
177001,-1310,1126,1171
177031,-1230,913,1385
177081,-809,252,1185
177141,-829,462,1034
177150,-972,485,1024
177199,-869,667,1185
177260,-1137,1123,1133
177271,-1174,1226,1125
177321,-1570,1709,883
177370,-1043,926,1239
177421,-1236,804,1113
177462,-1265,977,970
177472,-641,1266,1158
177531,-901,1035,1021
177550,-1136,470,995
177601,-1019,988,1123
177631,-1100,1222,1217
177681,-1229,-848,978
177720,-1444,640,1208
177761,-1064,706,1186
177800,-950,247,1330
177831,-1213,547,1279
177881,-1241,488,1144
177933,-1153,33,1156
177953,-1198,406,1141
178022,-1240,513,1112
178031,-1216,513,1102
178090,-1311,350,1158
178143,-1305,535,1198
178150,-1345,505,1186
178201,-1284,457,1195
178252,-1319,474,1103
178303,-1238,510,1101
178311,-1192,441,1094
178373,-1251,465,1088
178391,-1287,592,1175
178441,-1278,406,1050
178481,-1361,491,1137
178520,-1311,331,1215
178551,-1396,520,1176
178601,-1302,242,1282
178641,-1451,535,1173
178671,-1511,330,1165
178713,-1301,483,1211
178773,-1240,561,1072
178791,-1224,651,1113
178864,-1082,750,938
178871,-1174,654,986
178914,-1267,648,1065
178973,-1272,518,1127
178992,-1321,520,1157
179042,-1302,578,1064
179093,-1310,577,1089
179153,-1186,531,977
179195,-1328,580,1050
179232,-1258,541,1084
179242,-1202,603,1186
179271,-1199,607,1141
179311,-1253,459,1164
179351,-1369,603,1208
179391,-1239,582,1128
179431,-1300,498,1173
179471,-1228,683,1146
179513,-1259,497,1040
179554,-1289,717,1125
179591,-1324,436,1113
179632,-1292,547,1078
179699,-1335,653,1244
179743,-1253,498,1216
179753,-1099,570,1125
179794,-1016,465,1118
179844,-1125,352,1012
179896,-1201,584,1086
179945,-1323,583,1107
179952,-1318,619,1121
179993,-1285,552,1125
180041,-1237,595,1118
180071,-1187,587,1137
180111,-1212,698,1152
180152,-1231,553,1095
180191,-1173,668,1080
180231,-1248,655,1089
180272,-1372,577,1078
180312,-1373,655,1067
180362,-1319,625,1112
180392,-1447,482,982
180431,-1166,724,1123
180472,-1428,966,1165
180536,-1158,628,1198
180583,-1444,409,1057
180592,-1458,548,987
180636,-1390,796,1040
180692,-1241,630,1148
180742,-1349,488,1070
180781,-1437,420,1041
180791,-1424,501,1111
180832,-1331,571,1023
180878,-1353,480,1031
180932,-1366,462,1083
180972,-1397,534,1089
180991,-1342,566,1146
181031,-1489,469,1065
181071,-1335,451,1079
181161,-1357,566,1068
181174,-1376,648,1101
181192,-1351,600,1089
181232,-1346,497,1066
181272,-1315,495,1080
181313,-1307,468,1050
181353,-1344,635,1079
181392,-1314,494,1087
181433,-1359,540,1090
181472,-1349,586,1049
181554,-1269,522,1080
181563,-1247,462,1086
181602,-1346,561,1092
181674,-1385,477,1026
181715,-1281,535,1050
181722,-1296,526,1049
181762,-1266,484,1054
181802,-1338,494,1022
181842,-1340,485,1045
181872,-1241,532,1105
181922,-1328,485,1111
181962,-1278,502,1183
181993,-1494,644,1042
182032,-1240,568,1128
182072,-1339,523,1089
182112,-1345,562,1060
182153,-1375,641,1041
182192,-1353,585,1029
182232,-1273,483,1078
182273,-1354,620,1061
182312,-1361,559,1078
182352,-1334,539,1102
182396,-1458,581,1078
182453,-1372,502,1121
182496,-1362,461,1138
182542,-1335,438,1104
182553,-1342,370,1120
182604,-1342,449,1084
182652,-1279,342,1105
182704,-1341,330,1079
182752,-1233,380,1118
182762,-1318,433,1116
182792,-1300,365,1141
182856,-1332,273,1155
182913,-1305,392,1146
182923,-1309,367,1155
182953,-1327,334,1164
182992,-1391,280,1183
183032,-1341,359,1188
183072,-1304,371,1226
183113,-1358,480,1200
183152,-1326,452,1265
183214,-1265,554,1244
183263,-1198,548,1230
183309,-1288,414,1243
183315,-1260,405,1253
183372,-1214,608,1229
183426,-1181,362,1300
183433,-1184,393,1307
183515,-1114,514,1315
183527,-1144,499,1259
183583,-1079,489,1246
183594,-1073,445,1268
183663,-1076,483,1272
183714,-1148,287,1365
183724,-1154,253,1411
183753,-1104,419,1428
183793,-1164,268,1557
183833,-1052,429,1458
183874,-1081,450,1429
183913,-1049,422,1360
183953,-995,406,1382
184018,-981,401,1440
184066,-919,637,1428
184074,-889,623,1397
184126,-828,608,1480
184223,-648,614,1371
184234,-721,716,1508
184284,-585,820,1492
184295,-553,853,1442
184354,-524,725,1517
184397,-598,641,1507
184405,-601,660,1504
184445,-690,793,1547
184493,-618,749,1507
184549,-586,704,1524
184552,-586,721,1543
184593,-505,710,1540
184633,-459,829,1481
184673,-419,797,1509
184713,-504,647,1532
184753,-434,849,1459
184814,-439,846,1532
184863,-563,787,1534
184875,-516,854,1538
184913,-488,869,1580
184953,-528,713,1519
184993,-499,797,1563
185033,-469,776,1544
185103,-512,539,1534
185146,-531,744,1518
185154,-516,783,1548
185206,-559,793,1533
185282,-562,1039,1546
185286,-560,1033,1532
185334,-592,737,1477
185436,-592,860,1488
185446,-595,827,1485
185454,-584,812,1490
185495,-594,905,1421
185514,-579,874,1417
185555,-605,934,1474
185595,-574,949,1424
185635,-607,804,1406
185678,-623,986,1417
185735,-692,1008,1365
185754,-642,1030,1391
185795,-670,736,1432
185835,-650,1067,1407
185875,-639,919,1427
185915,-686,1033,1389
185955,-730,908,1552
186017,-699,858,1475
186056,-696,763,1460
186104,-727,822,1443
186116,-704,546,1461
186175,-672,785,1464
186215,-687,817,1496
186257,-741,666,1505
186306,-659,724,1520
186316,-620,687,1526
186357,-695,698,1491
186406,-714,681,1547
186447,-733,436,1530
186504,-678,552,1524
186516,-713,587,1508
186554,-747,627,1512
186594,-636,637,1472
186634,-744,565,1533
186674,-734,524,1535
186714,-731,510,1534
186754,-735,405,1596
186821,-781,390,1599
186875,-751,407,1562
186884,-767,366,1587
186947,-746,425,1576
186955,-748,344,1566
186995,-781,370,1533
187046,-798,401,1583
187087,-763,412,1559
187146,-756,400,1562
187183,-774,410,1594
187194,-815,283,1554
187236,-802,297,1594
187314,-820,326,1636
187324,-812,212,1638
187354,-821,412,1573
187394,-821,265,1624
187434,-817,429,1616
187475,-763,316,1612
187515,-759,455,1604
187555,-743,206,1540
187617,-683,504,1521
187665,-651,638,1566
187676,-640,605,1576
187734,-580,542,1567
187755,-624,526,1581
187797,-669,516,1597
187846,-636,492,1589
187897,-625,541,1612
187949,-620,572,1587
187989,-638,532,1561
187997,-620,531,1580
188046,-622,581,1581
188084,-619,576,1661
188115,-643,569,1643
188155,-582,593,1649
188195,-539,701,1616
188235,-508,654,1535
188275,-495,775,1649
188315,-602,728,1596
188355,-452,999,1524
188425,-365,737,1446
188477,-367,846,1508
188487,-370,870,1552
188542,-495,729,1668
188555,-474,812,1643
188597,-295,1009,1574
188636,-326,1081,1589
188708,-184,1091,1378
188717,-176,1120,1360
188761,-35,1125,1248
188807,-126,1191,1328
188850,-110,1244,1362
188908,-162,1119,1388
188916,-96,1146,1349
188955,-118,1068,1425
188996,-134,1229,1433
189035,-209,1094,1508
189075,-190,1132,1458
189115,-180,1111,1391
189155,-305,1166,1444
189220,-264,1334,1446
189266,-186,1229,1360
189277,-180,1249,1340
189315,-232,1159,1308
189359,-332,1271,1301
189418,-389,1249,1372
189469,-384,1143,1445
189478,-437,1112,1460
189535,-354,1164,1397
189580,-327,1179,1401
189630,-314,1122,1366
189633,-344,1141,1375
189680,-370,1109,1308
189736,-333,1502,1343
189756,-330,1385,1316
189795,-372,1212,1314
189835,-387,1140,1326
189876,-439,1118,1276
189916,-475,1311,1305
189956,-485,1317,1290
190020,-386,1292,1287
190077,-313,1209,1254
190087,-313,1179,1240
190116,-356,1383,1311
190156,-415,1248,1297
190209,-406,1192,1318
190235,-383,1232,1304
190277,-407,1066,1256
190330,-412,1165,1265
190372,-377,1269,1203
190417,-449,1156,1293
190457,-281,1060,1418
190509,-243,927,1476
190519,-265,1021,1448
190566,-343,1158,1418
190627,-338,1024,1190
190636,-352,1012,1212
190676,-227,1247,1187
190716,-652,735,1214
190756,-783,954,1125
190828,-535,1228,1506
190837,-437,1228,1499
190888,-234,1198,1309
190916,-290,1242,1272
190956,-267,1166,1259
190997,-457,1427,1220
191036,-524,1463,1171
191076,-602,1513,1148
191116,-417,1499,1157
191170,-522,1399,1119
191255,-499,1142,1204
191260,-470,1180,1167
191317,-645,1223,1391
191359,-684,1184,1420
191366,-718,1086,1383
191412,-648,1232,1398
191468,-433,1161,1254
191476,-403,1144,1238
191527,-333,1199,1235
191610,-279,1122,1167
191613,-267,1086,1176
191668,-22,1386,1307
191678,-339,987,1226
191720,-305,1136,1236
191757,-478,1445,1219
191797,-495,934,1246
191836,-612,1381,1441
191877,-441,885,1359
191916,-493,1513,1188
191957,-496,1537,1197
192028,-340,1148,910
192069,-324,1341,971
192077,-281,1429,1017
192117,-311,1748,1062
192169,-515,1941,806
192217,-345,1647,994
192278,-332,1596,805
192317,-311,1470,918
192360,-460,1774,833
192364,-427,1792,823
192410,-349,1674,810
192462,-350,1732,784
192478,-356,1828,747
192517,-516,1775,632
192558,-412,1644,690
192597,-375,1532,685
192638,-380,1843,721
192677,-456,1778,737
192718,-469,1688,782
192757,-363,1648,730
192822,-506,1664,696
192869,-532,1692,723
192878,-566,1674,640
192947,-481,1541,751
192957,-519,1510,713
193008,-589,1696,782
193052,-451,1705,686
193107,-564,1793,712
193118,-579,1715,756
193160,-580,1692,764
193197,-503,1587,639
193259,-580,1494,712
193308,-613,1648,769
193319,-588,1655,763
193358,-609,1636,747
193398,-585,1683,695
193438,-661,1599,629
193478,-680,1526,637
193518,-658,1654,664
193558,-704,1632,583
193620,-702,1628,650
193669,-653,1636,636
193679,-676,1664,643
193749,-711,1732,715
193758,-739,1696,704
193799,-680,1581,620
193838,-687,1616,613
193900,-644,1607,790
193959,-655,1649,717
194003,-679,1742,681
194013,-677,1768,680
194061,-809,1499,705
194117,-740,1654,649
194128,-728,1711,639
194157,-647,1681,726
194197,-609,1727,631
194237,-569,1654,566
194277,-516,1812,525
194319,-450,1716,475
194359,-561,1759,515
194431,-415,1882,387
194472,-626,1669,484
194479,-407,1887,452
194519,-330,1929,412
194561,-198,1975,246
194609,-170,1960,217
194661,-143,1784,140
194709,-126,1993,122
194718,-131,1999,85
194760,-86,1951,21
194810,-26,1792,-26
194852,71,1909,-144
194911,-21,1794,-129
194919,-4,1928,-156
194970,113,2084,-222
194998,14,1776,-373
195039,-346,1962,-474
195079,-95,2059,-543
195119,71,2043,-185
195159,18,1928,-244
195222,-14,2126,-239
195272,-2,1918,-274
195279,118,1811,-245
195318,-106,2025,-167
195358,141,2035,-208
195398,100,2140,-183
195459,158,1923,-97
195509,98,2007,-65
195519,71,2019,-57
195569,124,2183,-109
195620,-50,1787,-37
195663,57,2102,83
195674,143,2036,74
195719,49,1921,-69
195771,98,2006,-30
195791,131,2003,54
195839,152,2098,24
195878,126,1890,-76
195918,191,2051,-50
195958,123,1862,-182
195998,193,2038,-178
196039,189,1879,-274
196099,254,2054,-344
196118,190,2104,-336
196158,222,1963,-378
196198,240,1821,-460
196238,202,1710,-579
196278,172,2090,-719
196320,222,1878,-808
196391,210,2072,-838
196429,309,2123,-923
196441,298,1929,-941
196491,304,1845,-968
196549,301,2202,-1025
196602,318,1717,-1180
196610,296,1730,-1138
196662,311,1813,-1163
196709,232,1794,-1082
196722,228,1823,-1100
196761,206,1913,-1164
196809,130,1927,-998
196861,165,2216,-1041
196870,195,2160,-1022
196911,-20,2337,-751
196959,249,2759,-767
196999,25,1562,-437
197039,-219,1675,487
197079,-254,1662,875
197119,93,1638,781
197159,-85,1282,730
197223,-259,1662,922
197272,-249,1426,1134
197280,-203,1304,1137
197352,-11,1731,1308
197360,-40,1673,1305
197420,-13,1266,1179
197472,-439,1441,1438
197481,-462,1399,1344
197522,-160,1435,1235
197572,-112,1310,1394
197620,-305,998,1209
197670,-191,1208,1301
197680,-247,959,1167
197731,-108,1629,1573
197760,-241,859,1555
197799,-178,963,1398
197839,-175,1182,1634
197879,-16,932,1500
197919,-13,1211,1465
197959,-297,918,1635
198020,-293,766,1457
198079,-361,553,1430
198089,-314,501,1477
198120,-316,641,1546
198164,-212,806,1638
198222,-352,947,1711
198231,-296,1048,1705
198280,-255,618,1591
198350,-86,981,1509
198351,-126,912,1490
198441,-47,1180,1463
198451,-118,745,1413
198499,-155,1479,1470
198550,-208,654,1620
198563,-204,825,1669
198601,-26,820,1522
198631,-231,1242,1661
198681,1,628,1290
198721,49,1029,1400
198761,-165,982,1609
198824,-66,1571,1486
198840,-21,1469,1648
198881,-137,634,1687
198911,-185,987,1446
198951,-130,1151,1455
198991,-227,1185,1528
199042,-218,916,1480
199092,-109,1119,1272
199184,-208,1043,1587
199194,-176,1045,1529
199201,-182,1110,1482
199252,-97,1082,1456
199310,-257,689,1482
199320,-159,834,1501
199402,-359,821,1403
199412,-57,1455,1628
199470,-102,1317,1565
199480,-65,1213,1486
199520,-215,655,1642
199551,-158,805,1559
199591,-147,707,1586
199652,-162,1151,1574
199670,-34,1169,1529
199721,-148,1142,1311
199761,-20,1016,1443
199800,-114,907,1701
199831,-121,950,1544
199871,-83,1240,1497
199920,40,1092,1222
199960,-66,1197,1456
200016,-189,1008,1677
200063,-139,961,1494
200070,7,891,1529
200112,-74,1042,1411
200202,-44,1242,1450
200211,-13,1300,1515
200262,-218,1387,1460
200270,-54,981,1447
200314,24,716,1470
200361,9,1496,1351
200422,3,988,1515
200462,-118,911,1394
200474,100,1005,1447
200523,-120,1230,1438
200551,-84,1158,1273
200592,-85,1509,1320
200631,43,1473,1404
200672,-86,1327,1551
200712,62,1259,1307
200751,-25,1433,1213
200813,-90,1226,1489
200830,16,1342,1441
200874,47,1109,1291
200912,-44,1256,1527
200951,-16,879,1383
201001,35,1340,1309
201052,-26,1122,1440
201095,62,1214,1424
201152,58,1336,1378
201196,-9,1401,1462
201203,67,1391,1455
201262,21,1239,1227
201271,34,1093,1238
201318,66,1294,1174
201381,128,1781,492
201393,93,1653,508
201432,50,1509,-9
201471,539,2532,134
201512,562,2250,111
201551,421,1716,-919
201591,811,2977,-624
201643,552,1768,-976
201694,533,1755,-1012
201712,673,1827,-980
201751,515,2156,-1084
201815,587,1706,-943
201873,632,1816,-1005
201917,643,1765,-1045
201923,644,1884,-976
201972,620,1839,-920
202016,656,1851,-979
202068,593,1788,-814
202104,680,2339,-901
202114,798,2178,-898
202173,705,2160,-497
202222,571,1722,-585
202233,665,1763,-431
202271,489,1574,-231
202311,568,2248,5
202351,657,2166,-188
202391,505,1743,156
202433,624,1943,77
202474,583,1959,385
202541,483,1630,530
202553,551,1856,584
202593,453,1748,704
202632,568,1566,891
202706,422,1532,1039
202715,414,1295,1046
202773,397,1326,1012
202824,457,1337,1260
202874,419,1302,1304
202885,420,1070,1260
202932,307,1353,1220
203023,329,957,1564
203028,344,854,1479
203035,317,736,1419
203084,431,1249,1405
203113,379,1142,1447
203153,475,1285,1379
203192,389,1182,1409
203233,397,1090,1338
203284,522,1284,1395
203342,508,1342,1405
203353,479,1276,1381
203392,421,1284,1290
203432,487,1351,1273
203473,559,1275,1250
203512,535,1262,1129
203553,582,1519,999
203624,745,1612,969
203663,705,1492,855
203673,697,1462,832
203712,750,1629,736
203775,755,1753,597
203835,848,1741,471
203845,863,1716,460
203893,757,1872,400
203937,872,1868,390
203953,842,1911,389
203994,841,1710,408
204044,747,1771,346
204112,821,1719,429
204125,867,1705,437
204152,771,1818,389
204193,772,1792,418
204232,807,1821,476
204273,796,1807,462
204313,841,1821,473
204352,829,1890,511
204417,817,1645,712
204433,876,1537,737
204483,689,1405,643
204555,798,1650,762
204564,846,1664,742
204605,817,1764,731
204664,769,1513,633
204676,775,1601,651
204758,868,1639,745
204765,859,1631,766
204805,882,1631,637
204873,873,1711,629
204924,914,1630,678
204935,903,1643,665
204983,912,1693,578
204995,939,1697,571
205033,902,1671,471
205073,924,1613,443
205113,907,1681,347
205153,960,1713,236
205193,1003,1644,149
205237,1101,1922,149
205304,1022,1981,42
205314,1042,1966,47
205353,986,1797,75
205425,1071,1877,126
205435,1106,1897,146
205476,1061,1722,165
205537,1045,1648,119
205585,1042,1662,182
205596,1068,1664,193
205634,1115,1749,126
205687,1005,1837,-1
205735,1060,1781,69
205755,1007,1816,136
205806,1073,1654,21
205833,929,1522,-96
205873,1064,2003,-47
205913,1324,1645,79
205953,1193,1603,-166
206017,1114,1791,14
206105,1185,1387,65
206109,1187,1382,59
206113,1182,1421,27
206153,956,1722,196
206193,954,1645,198
206233,886,1507,288
206273,806,1535,534
206313,637,1815,580
206357,615,2081,513
206424,104,2128,446
206506,162,2324,350
206509,287,2279,436
206544,357,1768,538
206557,431,1961,231
206614,449,1837,325
206658,578,2043,250
206706,530,2075,287
206756,594,2040,278
206764,603,2032,259
206794,660,1859,269
206835,644,1775,361
206887,746,1756,451
206935,704,1743,439
206954,672,1723,465
206994,762,1848,589
207034,776,1777,692
207074,654,1456,632
207114,603,1583,564
207155,777,1732,536
207266,1110,1897,512
207310,897,1472,437
207318,917,1442,423
207327,945,1492,460
207365,1051,1498,364
207407,1074,1820,347
207459,1097,1695,204
207506,1066,1528,186
207516,1221,1598,386
207595,1142,1552,374
207598,1135,1547,377
207654,944,1477,740
207698,754,1561,803
207714,844,1812,670
207755,820,1751,524
207795,878,1922,565
207835,991,1829,664
207874,955,1872,478
207915,1224,1956,422
207954,1139,1527,641
208016,880,1553,892
208056,867,1427,957
208076,929,1245,1018
208149,844,1429,1041
208155,906,1552,1042
208195,1030,1365,970
208249,742,1100,1025
208307,746,1249,1290
208348,794,1372,1293
208358,874,1129,1151
208406,920,1378,1449
208454,725,879,1108
208506,1000,1863,1461
208526,1077,1658,1515
208555,682,817,1050
208597,932,1408,1282
208635,356,2472,1275
208675,764,328,1322
208715,617,551,1025
208755,1408,1777,1339
208819,453,671,1057
208868,1275,1777,1428
208875,1333,2009,1439
208946,1037,1157,1487
208955,1059,1228,1577
208996,754,463,1806
209038,1002,660,1625
209107,568,561,1223
209153,905,1375,1568
209156,893,1288,1496
209205,1099,1106,1358
209246,867,860,1460
209306,923,428,1465
209316,834,414,1403
209355,771,790,1504
209395,961,887,1459
209435,956,928,1492
209475,821,693,1450
209515,853,730,1412
209555,950,788,1641
209616,863,785,1392
209666,1187,1292,1362
209676,1076,1281,1220
209747,1189,962,1378
209788,1139,979,1323
209796,1024,949,1264
209848,939,787,1321
209898,1070,1049,1356
209946,991,998,1332
209998,925,835,1225
210056,1021,1102,1159
210098,1042,885,1192
210146,1078,1238,1104
210147,1093,1347,1090
210157,1150,1542,1278
210195,936,939,1501
210235,1007,795,1314
210275,959,1201,1090
210315,1063,1095,1324
210355,997,887,1166
210417,1126,1382,1199
210467,889,951,1359
210476,859,1051,1367
210515,942,1101,1201
210555,978,1247,1231
210596,837,957,1304
210648,879,1301,1370
210699,1045,948,1143
210746,730,897,1164
210787,847,1008,1224
210797,993,1335,1157
210858,980,1213,882
210895,1090,1383,1122
210948,1012,1085,1046
210956,1250,713,925
210996,667,1496,1062
211036,902,1162,1055
211076,780,1185,1221
211116,708,1441,1198
211156,646,1537,1135
211218,593,1615,1147
211277,496,1259,1135
211286,509,1305,1112
211316,578,1432,1047
211356,623,1792,1011
211409,545,1531,1034
211457,580,1496,1019
211507,509,1391,1146
211518,499,1231,1122
211566,382,926,1085
211606,308,1144,1232
211677,291,1321,1366
211718,260,1218,1413
211729,234,1278,1432
211778,119,1669,1565
211797,88,1418,1549
211836,88,1242,1497
211876,99,1297,1435
211916,80,1362,1431
211956,40,1087,1407
212021,76,1206,1317
212067,10,1356,1266
212078,-10,1272,1261
212116,64,1276,1330
212156,26,1109,1277
212196,43,1299,1314
212236,13,1257,1306
212276,31,1205,1317
212330,12,1248,1288
212380,45,1290,1335
212460,34,1249,1364
212465,18,1232,1365
212478,8,1254,1351
212529,66,1379,1318
212579,78,1596,1415
212630,-49,1488,1352
212639,-90,1449,1337
212719,-171,1531,1186
212727,-157,1435,1216
212757,-271,1539,1152
212797,-426,1625,1180
212868,-796,1545,1065
212920,-672,1198,968
212928,-582,1215,962
212957,-455,1090,843
212997,-411,1065,971
213037,-436,1452,988
213077,-451,1794,1169
213117,-419,1593,1161
213157,-481,1361,1120
213221,-335,1091,1031
213267,-187,1611,1072
213309,-195,1638,1071
213321,-186,1548,1058
213377,-292,1495,1157
213428,-399,1335,1066
213440,-449,1247,1045
213488,-548,1208,1125
213528,-601,1440,1271
213580,-662,1414,1275
213627,-646,1210,1222
213638,-643,1038,1242
213679,-654,1085,1173
213718,-646,1133,1005
213757,-527,1202,1109
213797,-634,1166,1112
213837,-689,1311,1139
213877,-941,1612,1237
213917,-1003,1841,1190
213957,-875,1273,985
214021,-714,1423,899
214069,-754,1598,879
214078,-785,1546,861
214118,-779,1401,770
214190,-745,1373,794
214198,-736,1340,789
214242,-584,1398,876
214328,-667,1444,832
214332,-678,1428,836
214389,-759,1452,930
214397,-758,1422,913
214441,-725,1361,817
214490,-600,1427,786
214538,-502,1526,864
214558,-499,1573,853
214597,-506,1679,926
214637,-602,1737,920
214677,-729,1662,960
214718,-879,1571,945
214758,-965,1575,932
214819,-1023,1224,798
214878,-1251,1218,660
214888,-1271,1213,643
214918,-1353,1192,614
214993,-1532,1263,717
214998,-1532,1280,717
215042,-1448,1094,694
215090,-1367,758,680
215142,-1056,1000,772
215182,-1008,1038,778
215234,-736,1189,845
215275,-795,1366,862
215288,-870,1360,876
215338,-1206,1064,529
215360,-1174,1449,794
215401,-1310,1128,718
215438,-1251,1380,681
215478,-1255,1121,479
215518,-1209,1213,544
215558,-1227,1242,529
215622,-1217,1354,557
215679,-1191,1202,478
215689,-1194,1197,520
215718,-1085,1163,497
215758,-988,1214,486
215798,-1038,1457,475
215838,-1088,1476,481
215878,-1067,1609,492
215980,-1150,1455,433
215989,-1133,1412,404
215999,-1124,1393,418
216072,-1122,1539,407
216076,-1120,1568,394
216120,-1127,1547,396
216189,-1303,1540,420
216234,-1392,1187,380
216240,-1379,1145,432
216290,-1341,1068,556
216319,-1323,1114,403
216359,-1224,1153,741
216428,-1341,1256,873
216439,-1381,1193,709
216488,-1495,1133,742
216519,-1455,855,743
216558,-1255,1031,629
216599,-1186,1125,751
216640,-1060,1151,712
216679,-1167,1069,760
216720,-1209,1029,691
216760,-1149,1155,757
216868,-1132,1276,800
216911,-1147,1111,782
216920,-1159,1098,789
216931,-1166,1083,797
216980,-999,1171,791
217030,-934,1281,813
217039,-937,1258,781
217091,-987,1226,768
217141,-948,1348,835
217189,-884,1289,842
217190,-870,1293,841
217233,-939,1326,845
217290,-934,1296,872
217341,-913,1337,867
217359,-878,1365,898
217400,-940,1316,866
217440,-849,1397,859
217480,-863,1386,864
217520,-858,1311,869
217559,-898,1332,912
217620,-774,1371,916
217680,-821,1342,895
217692,-799,1371,933
217720,-819,1353,900
217784,-835,1379,915
217792,-805,1412,970
217840,-738,1446,962
217893,-952,1248,842
217951,-870,1420,912
217993,-889,1347,900
218000,-894,1332,884
218041,-921,1280,872
218102,-825,1405,930
218110,-843,1379,908
218153,-899,1272,896
218200,-931,1237,876
218240,-922,1323,905
218279,-972,1240,838
218319,-927,1276,908
218359,-942,1255,861
218423,-1009,1298,876
218430,-1012,1311,866
218479,-1110,1207,846
218519,-1051,1177,868
218551,-1081,1305,856
218604,-1084,1156,797
218651,-1286,1237,782
218705,-1328,1366,879
218711,-1376,1344,873
218763,-1374,1153,824
218815,-1021,1144,938
218849,-823,999,1063
218902,-752,1058,1183
218912,-793,744,900
218953,-761,1120,1072
218991,-789,1261,1059
219031,-793,1097,1017
219071,-718,1280,1133
219111,-653,1216,988
219151,-582,1397,1116
219216,-734,1491,957
219271,-1032,1580,946
219291,-1177,1677,905
219320,-1171,1740,843
219351,-1132,1474,719
219400,-859,1285,660
219453,-616,1337,759
219511,-508,1386,802
219563,-393,1411,792
219570,-357,1407,808
219621,-174,1390,819
219662,1,1392,806
219704,48,1399,820
219747,118,1412,872
219763,57,1455,844
219810,12,1566,983
219864,-242,2258,1158
219871,-226,2140,1112
219920,-805,1572,1045
219960,-1506,1871,963
220000,-1437,1568,730
220031,-1180,1202,760
220074,-955,1215,834
220131,-678,1119,795
220160,-744,1242,889
220200,-703,1230,953
220240,-766,1135,844
220280,-418,1343,890
220320,-95,1683,1197
220360,-476,1425,1003
220424,-320,1388,1039
220473,-135,1765,1031
220482,-100,1767,1033
220523,-16,1639,969
220574,-55,1789,991
220623,-24,1803,957
220635,-4,1613,920
220684,84,1624,882
220737,199,1813,875
220751,127,1764,878
220792,84,1785,865
220831,34,1794,819
220883,44,1916,831
220934,58,1724,705
220951,-26,1651,723
220991,97,1740,733
221031,105,1747,736
221071,90,1859,794
221111,11,1582,774
221151,-58,1382,893
221212,-18,1683,1179
221272,-142,1580,1202
221281,-169,1575,1261
221343,-240,1468,1313
221353,-344,1434,1284
221393,-426,1114,1363
221453,-507,972,1309
221504,-544,1079,1218
221512,-507,1031,1167
221556,-168,815,982
221613,-221,1687,1022
221652,-130,1832,914
221703,-177,1757,805
221711,-139,1772,895
221754,-127,1783,947
221792,-273,1561,959
221832,-286,1249,1089
221871,-220,1377,1148
221911,-20,1630,1212
221952,-180,1440,1159
222012,-228,1508,1235
222063,-296,1409,1216
222072,-305,1418,1196
222111,-244,1571,1191
222152,-132,1472,1020
222205,-115,1333,929
222263,22,1499,901
222272,3,1451,905
222323,-17,1444,957
222383,78,1723,1039
222425,144,1794,1051
222434,111,1776,1073
222472,0,1691,1132
222522,92,2043,1043
222584,295,1850,1152
222591,323,1857,1130
222633,409,1680,952
222673,496,1805,997
222713,663,2049,1033
222753,707,1768,973
222816,714,1601,1009
222866,686,1471,993
222873,557,1550,938
222912,606,1624,789
222952,629,1873,828
222992,726,1667,763
223032,662,1541,782
223072,801,1799,854
223123,759,1332,801
223186,967,1670,821
223225,943,1717,824
223232,874,1641,794
223277,810,1514,777
223324,866,1671,889
223384,618,1358,842
223393,677,1310,819
223453,855,1506,859
223503,756,1207,663
223562,1086,1598,839
223573,1062,1642,874
223593,1008,1598,888
223655,958,1273,755
223714,1065,1231,497
223722,1066,1361,527
223752,972,1851,573
223792,821,1671,435
223832,620,1370,154
223872,-175,2239,290
223912,289,1725,-248
223952,476,1676,-104
224022,2229,664,77
224066,3309,600,-295
224073,3250,382,-266
224124,2174,1947,1441
224174,444,1561,903
224224,-1096,5123,4367
224235,1029,8651,88
224273,1139,-337,-1456
224323,1670,1315,1178
224365,813,-55,580
224423,1838,2402,667
224467,790,1367,671
224473,854,1559,760
224523,388,1662,413
224553,196,1948,548
224593,661,1421,294
224633,1737,2316,811
224673,286,1061,-287
224713,1612,2372,-45
224753,682,1267,-242
224820,1020,1559,-119
224866,1043,2012,-245
224874,1051,2022,-232
224913,793,2255,-71
224974,1295,1683,413
225023,571,1341,-14
225065,1642,1595,-198
225073,2223,1859,-76
225125,302,1516,-941
225175,1413,2333,-553
225234,1178,2225,-474
225327,299,991,225
225331,226,992,214
225334,256,1024,206
225353,994,1613,34
225393,1056,1870,-66
225433,777,1728,-31
225473,1148,1885,-187
225513,1266,1884,-883
225553,699,1432,-434
225619,692,1164,-464
225666,635,1394,-441
225674,1098,2123,-240
225713,819,1452,-958
225786,1318,1455,-563
225794,1317,1325,-526
225836,698,2233,-427
225886,1234,1814,-469
225943,1377,1665,-1110
225984,1085,1523,-708
225996,1332,1528,-615
226057,1681,1625,-930
226115,-180,1227,-654
226124,259,1173,-989
226165,716,1324,-814
226193,-73,827,-1898
226233,376,2107,-419
226273,930,1781,-2367
226313,439,2008,-557
226353,322,2646,-823
226417,558,1929,-707
226467,639,2116,-850
226471,681,2123,-786
226513,653,2106,-896
226554,497,1836,-998
226594,644,2070,-907
226656,548,2226,-813
226704,895,1582,-946
226715,937,1551,-923
226754,690,2095,-764
226807,878,2016,-348
226857,766,1928,-887
226908,653,1649,-784
226916,791,1677,-988
226998,930,1713,-776
227005,1009,1754,-761
227056,1179,2249,-708
227074,1088,1907,-535
227114,1460,1944,-775
227154,1419,1937,-647
227194,1225,1332,-556
227235,1847,1083,-937
227309,1595,1058,-822
227315,1614,1008,-791
227366,646,526,146
227395,654,614,-674
227434,1155,467,154
227474,1290,882,30
227556,1681,948,475
227599,1965,1076,98
227607,2077,1290,309
227646,1413,1250,-49
227697,2653,1106,-344
227716,1421,1267,-277
227766,1799,1943,125
227836,1776,1121,-22
227879,1898,1375,-304
227885,1963,1394,-314
227935,1456,1422,-473
227954,1814,1347,-476
228036,1741,1529,-422
228045,1534,1494,-500
228094,1769,1326,-38
228114,1458,1477,-263
228155,1846,1479,-55
228194,1742,1360,-199
228234,1307,1639,-110
228274,2030,1279,-58
228314,1533,1554,17
228354,1113,1838,623
228418,1383,1857,163
228435,1160,1711,681
228477,1032,1691,442
228527,645,1829,398
228587,1094,1346,-48
228598,1047,1667,-178
228640,1340,1741,487
228688,932,1444,304
228746,430,1526,669
228788,1179,1395,702
228798,1278,1396,845
228848,1108,1191,572
228887,728,1719,525
228955,971,1437,307
228966,1170,1461,118
228995,1822,1590,230
229035,711,1590,623
229075,1124,1543,616
229116,-47,1521,1074
229156,-728,1161,760
229221,515,1844,714
229236,1627,2117,855
229287,569,2305,-999
229315,1544,2737,-114
229355,544,2185,-2524
229398,1095,1715,-182
229457,4334,3493,618
229508,2286,1110,1376
229549,-122,-2521,-1241
229556,-407,-1643,547
229608,787,1494,2292
229666,358,2637,1175
229717,-928,831,769
229725,-781,989,649
229776,-810,1296,1082
229796,-442,897,850
229835,-691,1729,520
229875,-318,2334,327
229915,-772,1339,818
229955,-228,2483,700
230020,-154,903,1222
230036,-206,2752,1020
230085,-1281,1209,474
230115,-798,1888,697
230155,-1151,1282,545
230207,-958,1699,552
230266,-1052,1316,634
230307,-1140,1407,503
230318,-1007,1204,502
230361,-1401,1234,208
230417,-1156,1439,594
230469,-1269,1193,556
230509,-1311,1155,510
230513,-1360,1177,494
230576,-1325,1205,339
230625,-1468,1013,399
230637,-1463,1154,331
230676,-1431,903,593
230717,-1513,853,468
230756,-1669,879,236
230831,-2092,739,310
230836,-2089,740,294
230899,-1887,782,419
230916,-1766,686,411
230956,-1675,390,31
230997,-1681,831,389
231036,-1686,974,510
231076,-1374,882,510
231116,-1412,757,157
231181,-1424,379,247
231227,-1405,791,420
231270,-1718,1040,500
231279,-1701,1059,507
231328,-1535,526,639
231376,-1440,423,370
231430,-1609,466,536
231438,-1600,687,444
231476,-1535,700,488
231538,-1645,473,814
231587,-1673,965,190
231630,-1979,400,-455
231635,-1965,501,-400
231697,-1873,89,390
231716,-1848,613,223
231757,-1918,860,-145
231797,-2070,474,-444
231837,-2119,-134,-278
231877,-2315,983,-460
231917,-1670,-321,-737
231956,-2267,576,-527
232019,-1944,887,-668
232037,-2166,-163,-860
232088,-1527,-177,-320
232131,-1689,94,-155
232179,-1492,-300,-389
232231,-1285,237,-314
232278,-1566,145,-404
232288,-1718,234,-767
232338,-1807,202,-557
232386,-3012,-628,200
232427,-1514,-404,-208
232432,-1454,-230,-123
232490,-1820,-86,-830
232516,-1996,88,-739
232556,-2004,-1113,-982
232596,-1911,299,-601
232637,-2077,-506,-426
232677,-2067,-847,-608
232717,-1932,983,239
232757,-2039,-785,-399
232822,-1454,215,-1030
232837,-2020,56,-925
232891,-1761,-69,-1007
232928,-1846,432,-447
232988,-1696,4,-383
233038,-1937,902,164
233048,-1903,783,66
233100,-1481,625,-459
233148,-1966,458,-561
233190,-1828,905,-684
233193,-1864,991,-596
233237,-1441,893,-605
233283,-2244,-142,-138
233340,-1093,778,-810
233358,-1870,1169,189
233397,-1883,-500,-285
233437,-1232,408,-771
233477,-1344,1195,-924
233517,-1059,1536,-1677
233557,-1452,1576,-1264
233628,-1202,1431,-1056
233639,-1138,1120,-860
233688,-1128,211,-930
233749,-256,2110,314
233798,-558,2458,279
233851,-1682,1155,-294
233859,-1598,2018,-166
233898,-977,2291,-476
233947,-970,1953,-384
234000,-1026,1463,-1391
234008,-1143,1462,-1097
234049,-1413,2317,2341
234099,-988,1858,573
234150,-986,343,471
234157,-1232,1029,58
234197,-1054,1785,-231
234237,-695,2241,266
234277,-992,1380,-53
234318,-918,1692,274
234357,-970,1584,69
234420,-1113,1189,345
234438,-1090,1243,195
234488,-1202,1336,140
234518,-1256,1606,-14
234599,-1204,1509,205
234609,-1221,1436,165
234648,-1246,1324,347
234688,-1450,1088,147
234750,-1588,791,-114
234790,-1492,1392,-237
234799,-1466,1159,-285
234849,-1601,931,-224
234898,-1163,-3307,-1853
234951,-1560,1285,360
234955,-1648,1368,734
234998,-1664,1348,-105
235038,-1569,1005,19
235078,-1525,1251,-258
235118,-1754,524,-651
235158,-1368,1414,-102
235221,-1310,1327,-94
235238,-1626,1104,-283
235290,-1370,1700,-285
235318,-1458,1563,-392
235358,-1478,976,-251
235398,-1443,1100,-272
235438,-1521,1060,-43
235511,-1562,296,116
235519,-2805,552,-799
235569,-2521,1804,-34
235622,-2124,1302,-78
235670,-1223,291,-588
235713,-1265,315,-376
235723,-1055,1565,-314
235773,-743,1893,-174
235829,-616,1550,322
235841,-679,1567,420
235898,-1921,620,944
235918,-1743,720,1392
235958,-1503,815,673
235998,-1347,1638,350
236038,-2078,589,-302
236091,-1828,368,-155
236161,-1721,637,-199
236178,-1811,438,-240
236199,-1903,865,94
236239,-1676,837,273
236279,-1720,599,94
236318,-1714,709,-157
236359,-1672,1021,-161
236426,-1751,688,-175
236430,-1743,667,-205
236482,-1666,905,-105
236539,-1677,799,-125
236560,-1683,849,-95
236602,-1664,890,-146
236662,-1667,927,-139
236710,-1695,897,-245
236721,-1678,804,-241
236772,-1642,952,-170
236855,-1731,890,-250
236870,-1719,905,-170
236880,-1692,952,-308
236930,-1669,942,-394
236989,-1682,909,-187
237000,-1688,836,-181
237039,-1666,871,-315
237079,-1606,1080,229
237120,-1763,740,-390
237160,-1648,939,-263
237224,-1761,625,-103
237272,-1713,789,-291
237311,-1684,804,-131
237320,-1719,815,-85
237359,-1781,469,-250
237399,-1729,991,-284
237439,-1700,776,-292
237479,-1781,530,-231
237532,-1753,684,-516
237550,-1805,588,-297
237601,-1596,1022,-65
237650,-1700,725,-950
237689,-1641,802,-567
237733,-1670,1116,-211
237759,-1764,789,-709
237800,-1658,662,-342
237841,-1585,1492,-482
237902,-1757,595,-859
237911,-1682,731,-848
237959,-1552,1007,-207
238000,-1670,544,-1018
238082,-1619,1028,-425
238085,-1599,997,-398
238120,-1504,1158,-566
238160,-1490,1184,-352
238200,-1548,929,-395
238240,-1325,1390,-305
238280,-1452,1306,-400
238320,-1253,1550,-129
238360,-1293,1320,-302
238421,-1115,1728,-160
238501,-1236,1443,-104
238511,-1367,1409,-108
238521,-1334,1612,-215
238560,-1227,1397,-375
238610,-1152,2227,-371
238663,-621,2448,-356
238670,-705,2448,-363
238753,-789,-102,-138
238761,-174,1332,45
238800,-674,1099,-527
238850,-3677,1475,-1462
238892,-1217,1262,-710
238951,-1346,1586,-224
238961,-1452,1448,-382
239000,-1389,1235,-446
239031,-1239,1527,-510
239080,-1270,1103,-716
239111,-1385,1364,-435
239151,-1371,1471,-412
239262,-1528,1245,-803
239271,-1423,1146,-881
239281,-1478,1030,-787
239320,-1413,1383,-580
239351,-1455,972,-647
239430,-1558,804,-750
239441,-1494,1181,-572
239491,-1446,1111,-827
239541,-1388,577,-1247
239591,-2002,533,-1187
239672,-1666,1216,-490
239676,-1641,1276,-612
239681,-1606,1387,-625
239731,-944,943,-1911
239752,-1523,953,-59
239791,-1744,458,-1031
239833,-2361,854,-190
239880,-1546,1301,-220
239911,-1589,1249,-680
239961,-1537,986,-450
239991,-1577,1237,-531
240031,-1435,1184,-319
240093,-1483,1095,-362
240111,-1438,1352,-447
240151,-1505,1071,-520
240192,-1550,805,-441
240231,-1477,1209,-446
240277,-1360,1304,-192
240324,-1500,1116,-376
240373,-1521,1118,-486
240422,-1509,1210,-451
240433,-1538,1103,-592
240472,-1461,1318,-411
240511,-1507,1040,-574
240552,-1491,1168,-393
240591,-1448,948,-414
240632,-1570,792,-547
240671,-1447,1583,-310
240712,-1527,646,-547
240751,-1526,1536,-544
240814,-1447,950,-185
240831,-1438,1405,-207
240872,-1525,1148,-533
240933,-1530,1041,-380
240982,-1549,1310,-460
240993,-1464,1248,-574
241035,-1457,798,-335
241091,-1492,1582,-445
241112,-1462,1012,-327
241151,-1528,987,-155
241192,-1486,1409,-293
241233,-1525,1410,-176
241272,-1387,1138,-342
241322,-1373,1611,-70
241352,-1408,798,-594
241392,-1593,979,-832
241432,-1392,1597,-580
241472,-1352,375,-1039
241512,-1393,1797,99
241552,-1358,1312,40
241663,-1483,1273,-171
241672,-266,1628,-1680
241723,-1117,2094,-274
241732,-1168,2137,-533
241775,-1433,1519,-735
241792,-1269,1487,-316
241833,-1257,974,-91
241872,-1231,1622,-580
241913,-1247,1359,41
241952,-1187,1363,-530
242015,-1358,1564,-46
242032,-1211,1525,-304
242072,-1106,1185,-352
242113,-1164,1224,-504
242152,-1166,1524,-114
242193,-1148,1240,43
242232,-1188,1524,-368
242273,-1129,1575,-143
242318,-1177,1535,-197
242374,-1079,1500,237
242425,-1145,1282,-121
242433,-1171,1424,-252
242474,-1066,1786,66
242513,-1126,1651,-86
242553,-1209,1549,-67
242593,-1037,1877,78
242633,-1105,1598,-311
242673,-1051,1635,-255
242713,-1147,1502,-29
242753,-946,1354,-906
242824,-1158,1059,-121
242832,-1122,1198,18
242873,-1366,1908,-1578
242913,-981,1069,-873
242953,-997,1733,-410
243023,-1141,1456,-82
243033,-1124,1314,-69
243077,-1155,1600,168
243134,-1184,1806,-250
243177,-1584,1850,302
243234,-500,1836,-270
243242,-96,1206,-9
243273,-311,1420,-467
243313,-318,1933,-458
243353,-831,61,-1025
243392,-1916,4740,1482
243432,-781,1196,-193
243472,-538,2198,-612
243512,-1093,1907,-250
243552,-1162,956,-83
243615,-1037,1511,-1512
243633,-872,2045,157
243673,-962,1458,-244
243727,-1041,1746,-461
243813,-953,1734,-445
243825,-960,1681,-315
243833,-872,1652,-395
243873,-924,1765,-734
243913,-1025,1848,-429
243953,-1119,1424,-509
244014,-970,1768,-455
244034,-1079,1350,-774
244074,-1002,1481,-825
244113,-985,1698,-589
244157,-947,1622,-557
244193,-1037,1951,-452
244234,-1144,1836,-590
244273,-771,2398,-116
244313,-591,1941,880
244364,-552,1413,-409
244422,-482,3331,-176
244435,-784,2767,-776
244485,-806,1940,-867
244533,-781,2463,-587
244553,-863,2306,-600
244593,-624,1905,-479
244633,-643,1554,-292
244673,-505,2095,308
244713,-686,1786,577
244753,-406,1392,214
244816,12,2382,964
244833,405,2286,967
244873,323,1036,818
244913,297,1429,1079
244953,351,1661,1122
244993,537,1199,1219
245033,380,1287,1246
245087,512,1146,1350
245136,581,1007,1256
245185,636,783,1180
245227,659,803,1177
245236,709,1076,1357
245279,641,903,1305
245323,761,932,1201
245353,693,949,1475
245393,674,1014,1447
245433,766,906,1421
245475,446,1279,1538
245514,623,923,1369
245554,368,1345,1426
245618,634,1021,1235
245634,469,900,1245
245674,785,1315,1350
245714,503,1100,1377
245754,552,999,1441
245794,685,947,1513
245834,518,1188,1255
245879,751,1055,1465
245925,460,1075,1280
245980,564,1104,1356
246026,629,998,1338
246035,754,1054,1395
246074,613,959,1322
246114,674,966,1390
246154,668,1194,1367
246194,427,1249,1467
246234,619,1069,1499
246274,521,1268,1453
246314,754,1095,1513
246354,364,1108,1560
246427,421,1263,1600
246434,451,1216,1577
246474,428,1049,1462
246526,784,1030,1658
246569,718,977,1281
246665,222,901,1375
246674,194,873,1404
246684,223,872,1465
246715,918,761,1550
246755,607,520,1161
246836,1250,850,1337
246844,1086,817,1272
246874,510,881,1382
246914,1642,1022,1180
246955,705,1137,1049
246995,1650,1021,1679
247035,739,1140,882
247074,1135,1294,1815
247114,1281,787,1216
247155,831,1222,1688
247236,1253,1112,1411
247245,1330,1217,1656
247295,991,914,934
247339,1255,988,1691
247355,1495,1037,1578
247395,1340,751,1204
247435,1015,716,1209
247475,1657,416,1045
247515,1297,396,1013
247555,1260,640,1195
247619,1462,397,1121
247635,1481,429,1169
247675,1488,328,900
247716,1669,429,901
247755,1661,385,847
247795,1654,385,945
247835,1585,468,1094
247887,1982,276,878
247947,1375,519,904
247956,1456,540,892
247997,1863,512,871
248035,1586,535,859
248074,1864,780,867
248116,1620,616,936
248156,1441,672,928
248196,1959,961,1181
248247,1582,747,914
248298,1820,884,778
248316,1660,1047,779
248355,1730,916,770
248395,1577,963,681
248435,1685,883,844
248475,1607,676,747
248529,1728,842,804
248555,1833,767,797
248595,1604,719,872
248636,1684,944,797
248676,1753,1213,1010
248715,1648,1008,1041
248756,1586,1004,1058
248818,1607,1321,1102
248859,1759,1117,987
248911,1641,755,806
248918,1696,856,818
248956,1609,731,822
249025,1660,351,877
249035,1639,391,888
249075,1685,474,957
249117,1590,532,927
249157,1483,660,836
249217,1486,418,818
249236,1626,461,846
249277,1583,685,907
249317,1613,616,986
249357,1579,629,1017
249397,1573,700,1061
249436,1530,590,1038
249477,1536,555,1133
249516,1673,723,1090
249567,1585,789,1074
249619,1560,765,1040
249657,1517,778,985
249713,1542,867,958
249716,1557,869,962
249756,1603,774,892
249796,1575,708,872
249836,1614,889,867
249876,1547,824,881
249916,1550,701,869
249956,1597,850,963
250027,1494,808,976
250038,1469,847,1028
250076,1539,872,1005
250116,1527,863,982
250156,1667,900,1031
250196,1493,734,814
250259,1545,868,934
250317,1563,828,970
250331,1580,882,1006
250418,1475,933,1041
250468,1508,1013,1122
250476,1509,1040,1155
250486,1488,1039,1158
250517,1371,903,1090
250557,1570,967,1082
250596,1521,824,1063
250636,1577,890,929
250676,1456,958,924
250717,1454,877,964
250756,1501,878,935
250819,1499,903,974
250837,1437,896,953
250877,1429,949,1069
250917,1520,901,1039
250968,1405,895,1049
251062,1462,1019,1074
251068,1461,1015,1089
251077,1495,997,1055
251118,1399,892,1013
251158,1466,993,1010
251222,1372,1003,1077
251238,1487,992,1100
251278,1405,886,1073
251318,1445,949,1006
251358,1400,866,989
251397,1404,843,966
251437,1318,950,1047
251477,1385,946,1097
251518,1323,1088,1274
251558,1533,859,941
251619,1320,1098,976
251670,1334,990,1006
251678,1300,972,1001
251720,1303,1074,1124
251770,1201,1094,1342
251798,1369,1019,1237
251838,1395,832,1126
251899,1202,1002,1077
251918,1344,929,1122
251957,1365,1042,1084
251998,1229,927,1063
252049,1343,1052,1081
252077,1320,1002,1005
252117,1378,979,1108
252157,1358,1069,1081
252197,1401,1114,1121
252238,1292,1035,1152
252277,1352,1008,1072
252317,1352,1047,1079
252357,1301,936,1020
252419,1299,887,990
252438,1311,894,986
252479,1345,884,992
252548,1348,917,973
252561,1367,936,1040
252607,1291,970,1086
252660,1252,1119,1210
252710,1363,1175,1208
252718,1360,1180,1192
252759,1333,1167,1196
252798,1310,1183,1189
252852,1333,1139,1134
252878,1316,1107,1069
252918,1302,1105,993
252959,1349,1083,944
252998,1287,942,864
253039,1380,1049,1011
253078,1287,848,906
253118,1417,964,1146
253158,1302,719,1043
253220,1312,817,1103
253270,1395,885,1183
253279,1340,888,1154
253319,1391,717,1032
253369,1367,903,1101
253421,1248,805,1062
253438,1261,864,1110
253478,1369,813,1001
253518,1328,964,1038
253558,1449,1032,1089
253623,1373,1003,1119
253631,1378,1001,1111
253678,1246,1057,1109
253718,1365,1143,1273
253759,1227,952,1199
253798,1284,1245,1261
253839,1354,982,1254
253878,1255,955,1240
253918,1357,975,1234
253960,1324,938,1153
254000,1441,928,1054
254053,1325,958,995
254071,1373,908,1009
254114,1398,935,990
254160,1455,924,997
254199,1524,883,1015
254240,1425,809,1061
254279,1412,870,1079
254319,1382,936,1062
254359,1457,815,1044
254422,1519,825,1043
254430,1523,826,1033
254480,1445,769,1049
254519,1483,521,1099
254559,1604,861,1112
254599,1612,633,1026
254653,1431,698,1134
254689,1529,613,1084
254783,1450,583,957
254791,1480,529,1012
254802,1482,632,1059
254851,1542,642,1134
254880,1489,791,1143
254919,1557,660,1173
254959,1571,635,1125
254999,1511,538,1059
255039,1531,865,1056
255079,1546,779,969
255119,1525,773,957
255159,1588,782,1015
255224,1512,649,1125
255231,1496,706,1168
255279,1513,629,1188
255351,1510,779,1134
255395,1564,789,1135
255429,1500,641,1023
255440,1522,696,985
255479,1486,865,1044
255520,1499,708,1053
255559,1433,771,1090
255624,1518,496,1122
255639,1417,411,1023
255679,1535,687,1130
255720,1562,596,1131
255761,1441,471,1147
255791,1433,574,1161
255840,1401,643,1210
255881,1485,809,1205
255921,1495,691,1128
255981,1527,745,1112
255993,1431,730,1021
256033,1575,952,1000
256085,1436,643,1016
256110,1597,835,1034
256151,1814,545,1299
256190,1379,599,1139
256240,1286,1184,1218
256271,1101,872,886
256312,1585,565,1133
256372,1989,310,1090
256463,1236,1280,1120
256471,1241,2500,1437
256480,1017,584,904
256521,1330,795,1237
256551,1588,771,1325
256600,1543,-440,1474
256631,1744,501,1514
256680,1374,488,1301
256721,1305,381,1161
256751,1557,444,1244
256824,1676,533,1277
256831,2003,649,1137
256881,1422,14,1273
256961,1216,295,940
257003,1368,360,962
257013,1774,55,1059
257063,1658,106,991
257070,1711,352,1129
257121,1292,391,1140
257161,470,1834,353
257214,1194,539,1108
257230,1293,181,1094
257271,1582,947,1178
257311,1552,406,1094
257351,1546,395,1086
257391,1656,792,1260
257431,1458,789,1257
257472,1525,377,1232
257511,1424,232,1224
257551,1383,364,1276
257612,1422,347,1242
257656,1368,431,1358
257672,1259,371,1414
257714,1334,204,1479
257782,1303,76,1451
257791,1280,87,1423
257832,925,-419,1654
257871,1514,-60,1534
257912,1289,137,1421
257951,1315,-305,1358
258014,1339,63,1468
258031,1501,1473,1307
258072,492,-1117,2982
258112,1327,-1141,2326
258152,1313,148,1719
258192,518,-85,3031
258232,1859,-1021,453
258272,1171,357,1656
258312,1050,-34,1500
258376,899,-567,1057
258422,1196,24,1528
258466,1285,105,1362
258472,1310,176,1385
258523,1139,392,1546
258552,1162,252,1585
258592,1149,379,1617
258632,1109,235,1596
258671,1130,200,1562
258712,1097,183,1579
258751,1707,33,1521
258831,1089,214,1444
258841,1267,269,1597
258872,1013,692,1601
258912,1158,638,1614
258952,1098,396,1621
258991,1156,728,1497
259031,1347,287,1473
259074,1456,126,1485
259133,1254,604,1345
259174,1176,520,1353
259233,1142,638,1425
259235,1158,624,1438
259272,1187,769,1391
259312,1267,566,1576
259352,1494,309,1632
259392,1104,689,1480
259432,1143,977,1248
259473,848,575,1276
259513,1145,556,1505
259553,1192,773,1516
259616,1186,821,1326
259634,1048,542,1349
259673,1181,511,1466
259735,1421,435,1339
259787,1354,498,1384
259823,1415,331,1389
259835,1114,850,1448
259872,1168,590,1447
259912,1219,708,1326
259973,1197,641,1466
259992,1206,518,1426
260032,1131,1014,1394
260073,1084,636,1563
260133,1077,480,1367
260152,1289,503,1427
260192,1160,560,1421
260232,924,438,1444
260272,1068,594,1406
260312,1199,512,1395
260352,1107,732,1383
260418,1137,548,1372
260433,1152,252,1524
260472,1092,261,1504
260512,924,606,1587
260552,1172,626,1631
260592,1130,547,1594
260634,970,528,1483
260684,895,426,1579
260734,925,614,1461
260787,1037,377,1497
260794,992,342,1496
260832,1131,357,1595
260874,1064,541,1579
260912,1228,256,1574
260952,998,321,1538
260992,1033,297,1508
261033,1021,423,1540
261073,939,409,1427
261113,1128,348,1643
261153,1070,425,1600
261226,1021,474,1548
261232,833,334,1642
261273,1247,197,1699
261313,1113,181,1600
261353,1213,184,1451
261462,1292,106,1346
261474,1208,89,1399
261485,1223,139,1431
261527,1306,165,1470
261553,1700,662,705
261633,1195,193,1417
261645,1157,276,1465
261673,1200,321,1483
261713,1207,329,1493
261753,1040,536,1488
261793,931,319,1718
261833,1330,333,1758
261873,1192,612,1677
261913,1170,771,1495
261953,1081,279,1558
262017,1123,192,1514
262065,1130,585,1345
262075,1232,355,1366
262116,1039,578,1410
262206,1070,344,1594
262218,1136,186,1633
262234,1128,72,1707
262273,1164,-166,1613
262313,1187,218,1674
262353,1445,-116,1529
262426,1343,113,1409
262434,1531,200,1349
262473,1212,649,1337
262513,1397,194,1449
262553,1329,239,1362
262593,1331,-81,1420
262633,1167,56,1034
262674,1398,688,1292
262714,1414,383,1312
262766,1382,315,1412
262849,1136,560,1447
262854,1141,606,1407
262907,1353,381,1420
262914,1335,449,1427
262954,1313,564,1393
262994,1365,598,1338
263034,1300,466,1323
263074,1319,397,1376
263114,1301,483,1315
263154,1278,665,1298
263218,1274,462,1324
263235,1273,435,1318
263275,1326,457,1503
263314,1368,859,1433
263354,1144,1218,1358
263394,1170,797,1244
263465,1170,921,1096
263509,1340,744,1171
263515,1308,798,1179
263557,1235,634,1177
263594,1344,494,1360
263658,1267,1040,1251
263676,1129,884,1296
263714,1053,898,1350
263754,1337,907,1182
263794,1301,741,1249
263834,1285,795,1278
263874,1235,781,1293
263914,1241,933,1341
263954,1252,678,1245
264018,1257,659,1241
264035,1342,551,1240
264107,1227,515,1329
264112,1163,452,1330
264169,1410,287,1509
264195,1296,496,1405
264236,1167,455,1365
264304,1005,947,1431
264315,1159,306,1387
264354,1333,245,1499
264394,1046,721,1429
264468,1172,286,1620
264506,1563,-220,1594
264518,1186,571,1499
264565,810,1119,1260
264595,775,1150,1247
264635,937,946,1304
264675,1122,734,1451
264715,1077,1018,1504
264755,1044,598,1432
264820,958,519,1533
264835,1194,-495,1083
264875,872,1049,1675
264915,1000,-614,1592
264955,1017,969,1534
264995,617,1062,1167
265035,815,705,1341
265116,1009,676,1670
265126,1102,500,1599
265169,993,639,1527
265227,1077,331,1695
265276,697,940,1484
265285,699,993,1477
265315,822,821,1491
265355,876,622,1529
265395,1065,711,1615
265435,878,1331,1460
265475,881,1095,1491
265515,765,1128,1440
265555,813,734,1444
265618,862,889,1477
265636,724,712,1456
265675,953,586,1489
265715,836,676,1418
265776,1033,814,1560
265826,973,814,1512
265837,936,1027,1522
265879,893,904,1649
265920,880,1076,1439
265955,827,1061,1383
266017,985,1006,1325
266036,1067,817,1337
266075,1082,671,1413
266115,1044,696,1513
266156,1013,658,1467
266195,980,631,1471
266236,1089,609,1455
266276,1113,573,1431
266316,1098,616,1426
266356,1046,721,1392
266428,1103,433,1523
266437,1050,465,1484
266481,1071,481,1557
266537,1024,456,1498
266581,1079,454,1626
266596,1088,340,1617
266636,1035,261,1621
266676,1120,231,1591
266717,1004,435,1463
266756,972,401,1717
266818,1085,253,1656
266836,931,195,1546
266876,913,562,1595
266916,1029,292,1633
266956,971,374,1617
266997,987,285,1621
267036,1015,341,1520
267076,1013,627,1703
267128,1135,665,1673
267222,999,640,1613
267223,1040,502,1504
267232,961,492,1518
267300,1012,585,1661
267317,957,532,1620
267357,891,836,1639
267396,1126,674,1378
267437,1101,895,1428
267476,741,566,1422
267516,923,907,1520
267557,869,926,1493
267621,862,859,1356
267638,774,1032,1347
267676,938,575,1520
267717,1070,319,1597
267756,1087,479,1643
267797,904,517,1599
267859,946,401,1592
267911,889,505,1581
267923,720,320,1651
267972,948,258,1635
268063,672,-160,1497
268074,565,143,1244
268078,1012,451,1487
268122,928,463,1605
268158,991,457,1644
268197,949,571,1593
268238,880,680,1569
268277,964,456,1619
268318,900,449,1593
268357,887,497,1587
268419,828,428,1587
268437,814,505,1583
268477,883,565,1597
268518,952,446,1586
268573,890,670,1653
268622,894,582,1626
268638,853,516,1616
268677,1218,450,1879
268718,951,841,1491
268769,1036,928,1294
268797,814,960,1310
268838,866,929,1422
268937,872,811,1501
268949,965,1020,1641
268960,711,883,1672
268999,744,1250,1218
269037,904,1122,1378
269078,888,991,1397
269118,968,1016,1319
269158,879,747,1558
269227,685,984,1536
269238,744,1040,1442
269277,899,1010,1407
269318,934,867,1420
269358,985,754,1442
269398,942,1048,1452
269438,951,940,1485
269478,975,864,1421
269547,954,875,1403
269592,1014,837,1408
269599,1001,809,1422
269678,1000,740,1411
269723,807,1466,1107
269728,884,773,1127
269758,1119,347,1513
269798,1090,278,1590
269838,1024,575,1426
269878,992,715,1462
269918,1051,628,1513
269958,1082,729,1523
270021,977,704,1488
270038,900,642,1616
270078,939,535,1553
270118,970,666,1588
270158,975,604,1599
270198,1031,552,1625
270270,873,772,1574
270311,947,563,1583
270348,921,682,1521
270360,965,708,1482
270399,1087,645,1224
270449,1007,355,1661
270479,1048,590,1531
270519,979,630,1449
270559,1077,542,1387
270599,1070,641,1522
270639,1166,991,1509
270679,655,983,1456
270719,919,985,1445
270759,935,747,1445
270820,1051,1034,1369
270838,1048,1004,1384
270901,1297,1245,1317
270911,1064,966,1345
270952,994,1019,1486
271010,956,874,1582
271039,1119,671,1559
271079,1010,592,1502
271119,966,676,1435
271159,879,619,1431
271222,1129,405,1519
271239,1208,584,1513
271279,1096,408,1454
271319,734,812,1312
271359,1051,591,1431
271400,1075,781,1443
271439,924,892,1359
271480,1072,957,1461
271553,922,808,1442
271558,931,815,1450
271604,1055,970,1384
271661,900,805,1312
271705,992,783,1378
271759,1286,873,1343
271780,888,1183,1201
271800,1044,1050,1338
271840,1008,1003,1329
271880,1010,1065,1353
271920,1040,990,1376
271960,1067,917,1376
272023,1007,989,1322
272040,986,964,1340
272080,1064,970,1344
272120,1036,1101,1309
272160,1092,1036,1361
272200,1050,798,1377
272240,1136,972,1316
272294,1026,850,1388
272340,1071,809,1341
272361,972,1088,1294
272450,986,866,1319
272459,1038,877,1354
272480,1054,877,1353
272520,1000,900,1378
272560,1022,869,1406
272600,1072,914,1409
272640,1052,879,1392
272680,1081,857,1339
272719,1041,883,1333
272759,1041,969,1352
272826,1055,767,1384
272830,1054,773,1355
272880,1062,965,1354
272921,1052,837,1372
272970,1048,906,1350
272990,1085,867,1360
273030,1033,833,1380
273106,1037,826,1379
273113,1039,813,1364
273164,1069,865,1386
273257,1055,869,1363
273271,1037,845,1345
273280,1046,842,1374
273311,1036,908,1348
273351,1051,874,1385
273391,1060,886,1369
273431,1058,878,1361
273481,1059,904,1389
273511,1045,900,1370
273551,1063,870,1368
273631,1061,826,1331
273641,1064,841,1335
273671,1014,875,1356
273711,1022,810,1418
273751,1047,868,1413
273812,1021,912,1377
273861,1052,927,1379
273873,1066,894,1379
273951,1049,848,1357
273964,1057,947,1371
274021,1043,851,1366
274040,1023,909,1366
274080,1046,916,1397
274120,1085,945,1349
274160,1064,911,1372
274200,1111,718,1361
274240,1046,903,1371
274280,1057,846,1353
274320,1068,913,1356
274360,1074,789,1384
274425,1072,838,1346
274431,1060,836,1333
274506,1094,811,1314
274514,1091,822,1319
274565,1129,858,1309
274614,1091,893,1323
274631,1106,951,1323
274672,1098,871,1341
274712,1095,866,1323
274752,1098,838,1350
274823,1072,838,1363
274831,1086,870,1374
274872,1094,871,1390
274912,1096,861,1395
274951,1085,853,1401
274992,1098,814,1360
275032,1142,863,1340
275072,1110,810,1296
275111,1123,930,1292
275175,1080,902,1301
275256,1030,915,1359
275260,1040,944,1367
275274,997,1049,1387
275322,1124,951,1424
275351,1149,757,1294
275391,1217,860,1293
275431,1136,744,1251
275471,1213,772,1301
275511,1173,823,1298
275551,1086,881,1300
275622,1184,816,1436
275631,1185,785,1371
275671,1106,926,1322
275711,1125,821,1338
275751,1156,891,1312
275792,1102,740,1282
275831,1152,783,1335
275886,1104,699,1367
275947,1141,811,1346
275954,1136,826,1316
276008,1126,946,1289
276100,1084,1005,1327
276104,1092,984,1344
276111,1109,956,1373
276151,1044,888,1362
276191,988,924,1350
276232,1139,827,1244
276271,959,1132,1271
276312,983,1010,1232
276352,838,929,1367
276423,793,1015,1321
276432,885,989,1309
276472,866,1087,1440
276512,781,1040,1417
276552,808,1191,1417
276592,759,1258,1542
276654,298,1247,1333
276706,621,1030,1408
276756,614,1195,1414
276762,768,1203,1435
276814,142,1320,1316
276857,490,1308,1255
276873,173,1241,1285
276912,438,1296,1439
276952,235,1116,1279
277002,484,1359,1287
277032,396,1315,1160
277072,257,1264,1224
277112,589,1376,1167
277152,42,1561,1151
277192,495,1490,1210
277232,115,1322,1212
277272,374,1703,1288
277357,239,1640,1269
277363,141,1624,1212
277405,180,1327,1174
277455,387,1356,1112
277495,217,1519,1106
277514,63,1528,1128
277553,488,1391,1287
277592,25,1486,1180
277643,256,1555,1320
277672,-23,1442,1224
277713,378,1506,1239
277753,276,1232,1307
277793,321,1325,1214
277833,281,1316,1187
277873,292,1590,1150
277913,130,1378,1197
277953,211,1283,1271
278015,351,1414,1240
278056,177,1410,1220
278103,102,1423,1204
278145,120,1328,1224
278154,122,1326,1198
278193,133,1318,1244
278233,110,1244,1272
278273,106,1321,1208
278313,167,1417,1163
278353,28,1468,1172
278418,82,1449,1100
278433,5,1481,1116
278473,87,1566,1127
278513,54,1476,1109
278553,92,1433,1130
278593,88,1528,1109
278633,72,1628,1071
278695,126,1458,1099
278743,188,1511,1080
278785,164,1521,1076
278795,138,1530,1062
278855,139,1520,1040
278873,142,1566,1057
278913,180,1625,1051
278953,190,1596,1035
278993,180,1510,1074
279033,60,1570,1041
279073,140,1576,1061
279113,93,1578,1057
279153,161,1584,1029
279217,162,1540,1102
279233,138,1549,1068
279273,146,1535,1069
279343,173,1602,1022
279389,176,1588,1044
279394,148,1586,1033
279445,178,1521,1043
279494,185,1549,1044
279514,213,1639,1075
279554,138,1575,1085
279594,200,1591,1047
279639,181,1578,1034
279674,207,1627,1073
279714,199,1554,1038
279754,206,1554,1087
279794,206,1533,1065
279834,236,1529,1042
279874,200,1577,1047
279914,245,1573,1075
279954,236,1556,1048
280057,265,1521,1052
280062,277,1526,1037
280074,289,1550,1051
280127,267,1523,1037
280164,249,1536,1057
280195,262,1564,1037
280234,299,1604,1064
280275,271,1642,1048
280315,315,1557,1028
280355,311,1568,1027
280425,307,1536,1011
280435,266,1536,1014
280475,312,1531,1026
280515,288,1600,1001
280555,324,1630,1022
280594,340,1572,1018
280634,359,1571,1007
280710,317,1575,991
280717,308,1579,981
280766,307,1582,1010
280866,373,1589,1021
280874,377,1578,1032
280884,375,1573,1020
280915,291,1557,1000
280955,317,1573,1030
281006,316,1577,1014
281034,353,1536,1026
281074,342,1534,1018
281115,349,1521,1066
281155,327,1610,1004
281195,298,1528,992
281235,350,1577,990
281275,377,1551,1015
281326,338,1572,1038
281355,302,1629,1038
281409,311,1564,1028
281457,311,1586,1016
281507,257,1592,989
281558,278,1598,1034
281566,257,1564,1015
281595,248,1471,970
281648,319,1489,975
281675,313,1556,972
281715,311,1616,983
281755,312,1698,946
281796,340,1632,949
281835,330,1639,918
281875,290,1628,919
281915,361,1617,923
281955,337,1680,901
282017,375,1598,898
282035,354,1644,894
282097,298,1792,890
282147,297,1588,819
282152,295,1605,833
282215,287,1679,874
282235,324,1744,858
282276,328,1627,873
282315,311,1694,890
282355,347,1749,853
282422,320,1717,810
282435,315,1734,794
282475,326,1746,763
282515,288,1654,811
282555,319,1704,783
282595,325,1690,807
282635,329,1711,827
282675,314,1755,815
282745,329,1702,816
282755,345,1751,793
282811,345,1694,841
282850,294,1726,817
282902,328,1637,841
282916,337,1695,849
282957,315,1653,854
282997,310,1704,890
283037,304,1641,858
283077,319,1705,845
283117,306,1597,865
283157,307,1664,856
283221,335,1656,869
283237,318,1667,838
283277,328,1642,869
283317,315,1708,860
283357,295,1694,808
283397,350,1748,804
283459,339,1751,777
283520,344,1757,717
283527,358,1808,675
283571,356,1816,672
283617,330,1654,733
283667,265,1356,919
283677,259,1446,904
283716,304,1792,797
283756,315,2254,622
283796,367,1984,567
283836,219,1541,497
283876,301,1342,912
283916,277,1626,868
283956,311,1820,720
284018,325,1977,591
284037,323,1829,628
284076,279,1602,762
284116,203,1594,828
284168,326,1833,723
284229,358,1811,632
284237,350,1756,656
284282,315,1632,695
284316,323,1588,760
284356,272,1739,757
284430,314,1860,704
284437,293,1855,675
284476,328,1905,638
284516,307,1843,638
284556,301,1800,610
284596,319,1768,700
284636,315,1662,722
284677,281,1648,751
284717,275,1752,716
284757,306,1730,748
284862,254,1763,794
284867,281,1753,795
284871,298,1733,798
284928,339,1739,773
284980,328,1834,653
285032,357,1727,670
285036,363,1734,671
285081,339,1768,710
285117,332,1743,693
285158,292,1779,699
285222,264,1794,687
285238,252,1789,695
285297,337,1798,755
285317,302,1847,761
285371,356,1754,710
285398,308,1759,680
285438,347,1777,680
285478,319,1801,680
285517,339,1761,667
285557,292,1818,728
285629,323,1704,794
285639,313,1714,785
285677,413,1779,706
285717,340,1753,708
285758,363,1598,659
285798,353,1800,644
285868,348,1687,682
285905,371,1685,704
285919,402,1741,711
285959,381,1763,753
285997,348,1768,746
286051,346,1765,711
286077,372,1739,734
286118,296,1722,730
286158,345,1718,746
286198,331,1709,763
286237,323,1720,777
286278,330,1749,776
286318,350,1794,769
286358,398,1714,731
286431,290,1732,733
286439,294,1731,714
286508,307,1761,754
286551,367,1701,807
286560,353,1712,800
286600,381,1693,837
286638,337,1741,763
286678,347,1705,760
286718,301,1825,732
286758,400,1787,721
286821,401,1730,751
286838,402,1795,742
286879,357,1782,773
286918,380,1792,754
286958,273,1671,789
286998,413,1731,823
287038,350,1549,837
287078,337,1525,875
287152,392,1651,816
287158,408,1663,834
287202,410,1601,693
287250,440,1548,518
287311,429,2263,220
287319,437,2228,173
287362,439,1982,215
287398,482,1752,236
287438,413,1820,252
287478,392,2005,203
287518,432,1892,196
287559,467,1936,109
287621,381,1899,48
287630,412,1873,45
287678,349,2033,39
287718,330,1981,34
287759,371,1986,37
287798,331,1906,53
287839,313,1960,48
287906,312,1990,-1
287960,294,2249,-38
288013,327,1898,3
288061,345,2054,-34
288069,330,2038,-10
288080,294,2059,11
288119,319,2023,13
288159,218,1960,77
288199,272,1921,121
288239,188,1944,153
288279,259,1970,160
288320,169,1925,176
288360,244,1919,238
288431,292,1952,231
288441,252,1926,245
288480,227,1950,261
288553,229,1908,199
288559,252,1924,161
288600,304,1943,185
288665,378,1890,185
288680,312,1894,163
288719,408,1906,183
288759,330,1872,157
288830,373,1871,135
288840,393,1882,149
288879,463,1984,176
288919,381,1944,161
288959,452,1992,191
288999,385,2004,169
289040,435,1990,186
289079,340,2057,141
289119,411,1986,120
289159,351,2001,131
289199,390,1993,121
289254,337,1941,120
289270,358,1992,123
289322,351,1973,108
289371,338,1918,82
289400,358,1958,107
289439,350,1928,115
289489,378,1940,111
289520,369,1982,97
289550,356,1965,81
289590,368,1964,84
289632,362,2027,88
289679,389,1973,83
289720,392,1981,94
289751,373,1978,70
289800,338,1960,94
289831,367,1960,90
289881,356,1944,98
289911,364,1925,119
289960,331,1943,111
290021,363,1956,139
290031,344,1958,106
290071,374,1953,136
290121,364,1941,97
290151,342,1943,118
290191,350,1975,100
290246,380,1996,101
290302,321,1975,133
290353,351,1932,127
290362,352,1915,147
290391,317,1989,153
290443,337,1959,150
290471,357,1935,156
290520,347,1942,139
290560,398,1933,151
290591,385,1929,133
290640,355,1968,101
290671,350,2008,107
290721,348,1938,120
290751,408,2006,129
290812,414,1979,221
290833,755,2131,294
290906,656,2210,164
290911,645,2205,131
290951,172,2245,-9
291000,319,1932,-106
291054,545,1897,-92
291071,521,1861,-80
291121,207,1778,-141
291151,647,1859,-55
291216,735,1665,53
291231,793,1590,139
291272,291,1850,86
291312,553,1869,72
291351,458,1729,131
291392,952,1924,213
291431,183,2250,35
291472,531,1864,61
291511,388,1774,135
291552,679,1908,226
291605,656,2135,320
291656,486,1811,284
291671,598,1807,270
291713,423,2037,208
291772,510,2064,178
291792,496,1937,180
291831,555,1762,172
291872,469,1888,170
291911,553,1855,236
291952,492,1931,205
292014,555,1923,237
292033,521,1941,252
292071,498,1939,229
292111,560,1819,252
292152,511,1885,221
292191,515,1877,181
292232,493,1855,191
292271,602,1890,206
292318,471,1904,180
292374,434,1859,158
292434,599,1879,172
292443,605,1886,195
292496,553,1899,188
292511,511,1887,180
292551,448,1900,159
292591,436,1934,125
292631,491,2016,101
292671,498,2041,129
292712,469,2011,124
292752,446,1951,128
292824,352,1920,105
292833,362,1923,134
292872,393,1956,113
292913,423,1912,122
292953,486,1916,129
292992,433,1938,129
293036,426,1888,135
293093,414,1925,97
293138,392,1922,81
293234,492,1986,80
293285,423,2033,35
293294,400,2049,30
293305,401,2035,22
293312,409,2029,14
293353,465,2094,16
293393,447,2041,42
293433,441,2015,26
293473,450,2021,36
293513,413,2006,33
293552,423,1970,32
293635,425,1919,38
293644,415,1906,20
293672,439,1891,46
293712,443,1946,57
293752,427,1914,20
293792,440,1932,22
293838,473,1923,40
293872,457,1972,25
293913,473,1957,8
293974,446,1974,-8
293993,468,1975,6
294033,467,1946,25
294073,465,1954,5
294121,457,1958,2
294175,458,1974,0
294193,470,1974,-1
294245,429,1964,15
294273,461,1961,14
294313,424,1984,-2
294353,451,1956,42
294393,440,1969,14
294446,468,1982,31
294473,434,1967,27
294514,445,1971,18
294553,432,1950,12
294593,449,1944,-2
294633,416,1941,-5
294673,447,1934,1
294713,438,1925,7
294753,424,1959,-2
294796,401,1949,20
294835,451,2024,16
294905,411,2053,32
294915,431,1996,50
294958,473,1903,13
295003,504,1669,55
295033,517,1857,27
295073,441,2033,9
295113,432,2154,-64
295153,436,2154,-101
295219,393,2073,-59
295234,407,2010,-22
295273,407,1884,50
295313,389,1918,66
295353,383,1887,77
295393,374,1851,75
295433,361,1938,44
295473,363,1977,38
295546,395,2041,57
295587,403,1997,62
295597,426,1995,62
295636,411,1984,77
295704,437,1950,50
295713,444,1950,25
295753,430,1918,20
295794,425,1925,-6
295834,414,1945,-28
295874,430,1916,-6
295914,414,1940,-7
295955,432,1954,8
296027,428,1975,38
296036,417,1986,13
296074,411,1981,14
296114,427,2004,32
296154,424,1967,45
296194,434,1981,27
296244,398,2000,21
296287,406,1990,17
296346,441,2005,17
296388,430,1954,9
296429,460,1940,-4
296434,472,1923,5
296475,423,1950,-43
296514,447,1939,-65
296554,404,1982,-54
296595,439,1989,-61
296634,430,1971,-41
296675,411,2002,-22
296715,437,1991,-7
296754,403,1992,-2
296825,393,2016,94
296836,400,2009,87
296874,386,1944,140
296936,386,1851,119
296979,456,1929,102
297036,519,1858,0
297044,521,1878,-24
297075,538,1988,-101
297115,546,1977,-175
297154,532,1965,-169
297222,535,2036,-178
297235,509,2030,-146
297274,482,1995,-112
297315,484,1995,-54
297355,559,2004,-17
297394,469,1990,-31
297435,626,1934,-59
297475,545,1936,-101
297515,486,2039,-117
297587,449,2113,-32
297636,444,1970,84
297645,440,1943,94
297688,444,1928,140
297747,524,1781,121
297755,541,1784,99
297795,545,1802,48
297835,531,1752,-25
297875,527,1881,-34
297915,530,1883,-37
297955,543,1862,-12
298018,507,1973,0
298036,503,1979,-13
298075,524,1979,-17
298115,561,2022,14
298186,509,1983,12
298195,513,1987,10
298236,506,1956,7
298275,509,1985,-21
298338,521,1953,-53
298356,482,1953,-72
298400,444,1978,-63
298451,434,1969,-50
298475,467,1932,1
298537,487,1926,15
298565,510,1812,58
298595,507,1787,22
298635,504,1896,41
298676,546,2045,68
298715,340,2348,-57
298755,370,2209,-86
298827,370,2008,-44
298836,388,2005,-52
298879,335,1923,18
298915,357,1919,51
298955,449,1753,105
299010,472,1680,28
299077,501,2034,44
299119,394,2267,-51
299138,393,2238,-34
299185,421,2252,-55
299196,407,2233,-48
299260,334,1938,38
299277,351,1926,69
299317,326,1972,105
299356,329,1916,121
299397,303,1949,119
299437,323,1948,121
299476,384,1904,154
299517,393,1939,171
299556,408,1941,168
299617,379,1881,159
299636,363,1910,135
299677,350,1932,124
299728,384,1917,119
299777,391,1980,167
299837,359,1968,178
299846,336,1955,189
299876,292,1943,201
299917,299,1912,204
299957,265,1908,235
300028,280,1874,234
300037,284,1879,233
300077,301,1959,231
300117,304,1896,231
300157,262,1905,236
300197,279,1947,239
300237,291,1932,232
300277,318,1943,240
300316,346,1951,244
300378,355,1963,215
300429,351,1951,190
300466,350,1961,183
300480,363,1979,188
300570,367,1966,186
300580,391,1953,187
300597,391,1949,206
300637,373,1915,176
300677,371,1931,160
300717,347,1889,133
300757,370,1919,131
300820,389,1871,145
300837,382,1887,124
300877,354,1955,169
300917,346,1957,171
300958,364,1955,203
300997,369,1960,189
301038,385,1963,166
301077,398,1974,189
301121,375,1982,168
301221,394,1970,142
301268,396,1928,129
301313,397,1938,140
301322,413,1936,158
301329,400,1938,149
301357,397,1935,132
301397,411,1944,136
301437,399,1944,115
301477,388,1950,139
301517,392,1958,134
301557,405,1949,130
301629,404,1943,135
301637,396,1969,119
301677,404,1929,153
301717,431,1965,124
301757,367,1974,95
301797,421,1978,136
301912,403,1969,94
301921,408,1989,105
301928,427,1979,108
301971,424,1915,97
301997,410,1925,102
302072,409,1942,109
302078,416,1936,114
302118,396,1953,105
302157,396,1952,111
302218,366,1952,105
302239,374,1961,116
302278,422,1979,132
302319,403,1945,138
302359,403,1949,115
302399,400,1935,82
302438,388,1964,83
302478,418,1926,95
302553,429,1939,118
302562,415,1956,116
302612,418,1962,109
302671,377,1956,112
302709,395,1956,96
302718,413,1964,101
302759,398,1958,104
302799,412,1960,109
302852,403,1974,103
302879,398,1951,90
302918,400,1938,79
302958,423,1963,74
302999,386,1944,111
303039,410,1946,82
303079,401,1950,84
303118,423,1957,76
303158,400,1955,95
303261,421,1982,52
303269,415,1988,78
303310,395,1957,81
303319,403,1957,86
303368,409,1940,93
303398,371,1964,76
303438,420,1958,66
303478,433,1951,66
303518,400,1962,74
303558,399,1987,58
303622,442,1936,82
303630,417,1967,95
303678,382,1935,66
303718,412,1980,74
303758,406,1970,42
303798,395,1957,68
303838,404,1944,62
303906,410,1974,74
303954,374,2005,30
303959,387,2007,28
304011,391,1922,114
304052,385,1967,47
304079,365,2030,23
304119,431,2021,34
304160,403,2014,30
304199,373,1912,19
304239,378,1936,69
304279,368,1933,-6
304320,387,1960,27
304359,391,1966,-10
304430,391,1979,7
304449,378,2001,-20
304479,396,2006,24
304553,369,1950,37
304563,380,1947,20
304611,376,1968,22
304712,346,2019,43
304719,369,1979,45
304730,387,1979,41
304759,381,2089,42
304800,321,2004,26
304870,371,1915,24
304879,362,1883,4
304919,358,1972,18
304959,330,1887,7
304999,357,2015,-48
305039,443,2031,35
305079,397,2078,19
305119,380,2003,41
305159,378,2002,6
305254,390,1969,14
305258,382,1972,22
305280,360,1927,33
305325,365,1940,30
305374,379,1978,28
305401,389,1970,24
305441,388,2023,27
305481,358,2004,26
305521,365,1921,66
305561,390,1952,88
305631,388,1967,87
305640,415,1968,84
305680,376,1948,55
305720,401,2008,56
305760,380,1948,48
305800,393,1972,35
305840,402,1939,48
305880,383,1915,38
305933,380,1891,46
305983,391,1931,47
306024,376,1925,69
306073,379,1955,72
306084,372,1977,78
306121,399,1969,60
306151,374,1989,70
306221,358,1989,44
306230,361,1990,65
306271,367,1965,56
306311,370,1966,54
306350,346,1948,40
306415,348,1964,35
306431,335,1968,18
306480,346,1979,26
306520,300,2010,6
306560,382,1989,57
306600,407,1872,13
306640,385,1903,20
306680,345,2000,5
306720,279,2081,19
306760,345,2023,-17
306832,346,1908,26
306841,340,1907,27
306896,290,2002,24
306961,371,1991,31
307015,333,1985,6
307055,329,1981,1
307063,321,1982,7
307072,330,1987,-2
307111,361,1989,19
307151,354,1977,-8
307221,357,1935,-13
307231,360,1940,-15
307271,356,1965,-37
307311,364,1996,-35
307351,349,1982,-41
307391,357,2002,-35
307431,316,2004,-36
307471,328,2002,-13
307511,316,2022,1
307551,344,2015,32
307601,326,2048,8
307646,342,2038,-1
307714,332,2032,14
307764,362,1972,33
307770,379,1965,49
307791,389,1965,25
307831,420,1966,18
307871,426,1945,1
307911,420,1928,-28
307951,508,1847,-8
308022,508,1917,-26
308032,495,1916,-32
308071,546,1941,-61
308111,550,1963,-53
308151,553,1987,-84
308191,619,2002,-50
308231,615,1983,-7
308271,620,1936,-25
308323,633,1920,-43
308378,599,1880,-61
308394,589,1870,-58
308472,592,1886,-65
308476,598,1881,-50
308528,635,1904,-71
308552,630,1874,-43
308592,579,1882,-36
308632,568,1926,-71
308672,562,1920,-43
308712,583,1939,-20
308752,621,1953,17
308822,575,2026,5
308832,578,2021,-10
308872,664,1927,-7
308912,649,1955,-2
308952,675,1907,-13
308992,676,1918,-31
309032,645,1930,-20
309085,646,1851,-32
309154,764,1899,-32
309196,788,1909,-18
309203,780,1892,-10
309256,751,1883,-37
309272,723,1863,-49
309312,702,1813,-69
309352,744,1794,-57
309392,726,1823,-42
309432,702,1867,-41
309472,661,1936,-5
309512,680,1866,25
309552,643,1955,22
309619,668,1926,54
309632,685,1962,51
309672,706,1909,50
309712,716,1957,30
309752,696,1947,-5
309799,698,1926,2
309847,708,1897,-39
309894,706,1945,-56
309955,668,1968,-91
309963,680,1956,-51
309993,695,1984,-34
310045,710,1949,-47
310073,702,1926,-23
310113,669,1940,-68
310153,655,1890,-74
310193,666,1910,-75
310233,643,1915,-68
310273,648,1930,-91
310313,664,1942,-79
310353,672,1926,-54
310425,651,1946,-76
310433,644,1931,-60
310548,697,1940,-46
310553,683,1939,-20
310558,692,1930,-18
310593,636,1897,-47
310633,714,1913,-48
310713,691,1925,-49
310724,720,1925,-66
310753,702,1931,-90
310794,732,1920,-59
310866,735,1899,-75
310874,744,1915,-73
310955,796,1878,-114
310964,796,1868,-99
310993,781,1874,-83
311033,812,1858,-59
311073,776,1877,-73
311113,797,1862,-98
311153,777,1854,-77
311219,761,1872,-50
311234,767,1892,-64
311273,776,1878,-70
311313,786,1910,-92
311353,763,1900,-102
311393,737,1911,-83
311433,750,1899,-76
311501,749,1929,-66
311547,757,1887,-83
311557,743,1891,-69
311604,740,1906,-63
311650,739,1890,-74
311674,766,1886,-73
311714,731,1894,-72
311754,745,1907,-78
311794,761,1905,-96
311834,753,1920,-108
311874,764,1893,-115
311914,772,1921,-111
311954,756,1902,-116
312025,736,1905,-94
312036,764,1921,-113
312074,757,1913,-105
312136,742,1901,-102
312197,735,1919,-102
312239,737,1924,-102
312247,722,1915,-101
312290,747,1905,-96
312314,732,1925,-126
312354,750,1913,-119
312394,743,1946,-128
312442,765,1919,-115
312474,774,1918,-118
312514,745,1926,-119
312554,749,1920,-117
312594,765,1899,-118
312634,774,1926,-137
312674,767,1880,-114
312714,754,1911,-152
312754,734,1875,-148
312819,798,1919,-211
312861,790,1929,-183
312909,794,1868,-151
312917,816,1848,-108
312968,809,1859,-48
312995,815,1833,-15
313035,766,1873,-32
313075,817,1841,-54
313115,771,1889,-95
313155,787,1838,-51
313228,814,1876,-100
313236,804,1890,-93
313275,783,1915,-147
313315,812,1894,-125
313355,779,1978,-215
313395,871,1975,-170
313435,801,1927,-121
313508,827,1913,-64
313513,827,1917,-49
313569,908,1793,-48
313627,920,1811,-5
313677,938,1867,-25
313687,952,1861,-34
313715,941,1844,-12
313755,946,1858,-53
313795,937,1882,-63
313835,939,1840,-75
313875,960,1860,-91
313915,965,1821,-84
313956,1102,1867,-98
314020,1187,1872,-68
314035,1185,1869,-56
314075,1065,1805,-57
314116,976,1738,-53
314155,932,1579,-50
314231,973,1583,10
314236,993,1558,11
314288,1042,1560,79
314336,1054,1728,101
314397,1100,1737,124
314442,1143,1781,61
314446,1134,1795,70
314475,1121,1860,61
314515,1096,1809,16
314556,1118,1801,58
314596,1134,1773,52
314636,1105,1740,70
314676,1118,1689,39
314716,1077,1750,-1
314756,1079,1705,-15
314821,1078,1664,2
314837,1132,1673,7
314876,1114,1704,24
314939,1149,1686,-16
314956,1134,1713,1
314997,1143,1789,-16
315036,1071,1884,-57
315096,1075,1921,31
315116,1065,1869,58
315167,1014,1785,94
315197,1043,1713,112
315258,1061,1680,31
315309,1118,1647,-51
315319,1104,1653,-45
315376,1071,1684,-37
315396,1081,1661,-19
315437,1089,1653,31
315476,1139,1658,77
315516,1164,1687,37
315557,1136,1718,0
315629,1204,1755,-128
315638,1180,1778,-163
315676,1139,1855,-168
315717,1033,1897,-115
315756,992,1823,-63
315797,1033,1781,25
315836,1041,1806,63
315919,1004,1829,-11
315929,1011,1837,-3
315978,1032,1803,-32
316029,1066,1756,-12
316078,1068,1750,-34
316127,1097,1762,-36
316137,1100,1744,-43
316157,1122,1720,-63
316197,1122,1739,-43
316237,1174,1703,-31
316278,1138,1729,-37
316317,1095,1739,-45
316358,1076,1738,-39
316428,1032,1714,-29
316439,1039,1724,-8
316478,1044,1715,-23
316517,1047,1714,-29
316558,1065,1739,-44
316597,1061,1784,-88
316668,1122,1779,-91
316679,1126,1762,-55
316738,1072,1767,-71
316782,1088,1774,-70
316832,1072,1758,-87
316837,1081,1754,-101
316877,1085,1796,-88
316917,1107,1756,-93
316958,1081,1773,-88
316997,1076,1780,-76
317038,1114,1726,-62
317077,1130,1734,-85
317117,1131,1764,-60
317157,1112,1732,-85
317222,1078,1690,-100
317239,1056,1686,-101
317277,1061,1722,-96
317318,1078,1715,-115
317391,1159,1763,-119
317398,1169,1758,-114
317488,1091,1769,-146
317531,1092,1773,-148
317538,1082,1786,-165
317550,1094,1757,-149
317598,1094,1801,-153
317672,1115,1761,-157
317681,1117,1777,-148
317718,1099,1771,-175
317758,1096,1781,-157
317799,1095,1776,-180
317838,1063,1767,-190
317878,1083,1786,-193
317918,1062,1758,-197
317958,1104,1743,-207
318030,1084,1774,-176
318039,1083,1783,-184
318140,1078,1768,-174
318148,1076,1774,-176
318201,1116,1779,-177
318250,1090,1776,-168
318258,1074,1794,-180
318279,1079,1805,-184
318318,1071,1793,-183
318358,1046,1847,-203
318431,1070,1819,-163
318440,1074,1828,-172
318478,1058,1790,-157
318518,1055,1809,-157
318559,1062,1774,-142
318599,1055,1779,-179
318639,1052,1763,-177
318679,1034,1766,-155
318719,1058,1771,-143
318833,1059,1793,-169
318840,1054,1771,-156
318850,1067,1779,-167
318896,1058,1766,-156
318949,1066,1762,-163
318959,1062,1774,-153
318999,1037,1798,-163
319040,1052,1760,-154
319079,1061,1799,-138
319119,1038,1783,-139
319159,1065,1791,-160
319232,1057,1779,-155
319241,1055,1777,-146
319279,1063,1799,-138
319321,1030,1802,-122
319390,1061,1768,-149
319400,1053,1768,-137
319430,1060,1829,-151
319481,1037,1788,-147
319524,1071,1795,-141
319584,1058,1733,-129
319591,1063,1726,-136
319642,1067,1766,-142
319679,1068,1780,-162
319725,1067,1764,-152
319760,1070,1782,-140
319800,1087,1776,-127
319840,1107,1760,-130
319880,1112,1746,-121
319920,1086,1725,-123
319960,1080,1741,-129
320025,1107,1712,-159
320041,1099,1730,-182
320080,1105,1745,-151
320120,1112,1763,-159
320222,1100,1827,-163
320232,1103,1813,-133
320241,1111,1801,-146
320315,1057,1771,-127
320326,1063,1747,-133
320360,1053,1730,-117
320400,1040,1740,-133
320460,1040,1752,-117
320472,1043,1739,-131
320520,1077,1759,-121
320560,1066,1746,-127
320591,1091,1697,-112
320640,1104,1738,-119
320671,1148,1754,-114
320720,1122,1807,-139
320751,1118,1788,-146
320821,1041,1827,-161
320830,1050,1802,-158
320883,1062,1822,-164
320924,1049,1762,-137
320974,1038,1747,-133
321001,1023,1750,-119
321031,1029,1784,-118
321071,1003,1819,-89
321111,1042,1744,-45
321151,1008,1786,-29
321215,992,1781,-47
321232,997,1771,-69
321271,1041,1808,-77
321311,1053,1775,-53
321351,1028,1846,-109
321391,1000,1821,-130
321431,999,1846,-112
321481,1000,1773,-116
321523,1061,1741,-110
321614,1039,1798,-113
321625,1061,1782,-152
321631,1068,1793,-150
321682,1096,1791,-153
321721,1103,1761,-142
321751,1087,1779,-131
321791,1093,1753,-136
321831,1083,1766,-127
321871,1091,1794,-142
321911,1106,1763,-145
321951,1128,1731,-108
322018,1135,1742,-101
322032,1130,1730,-130
322071,1113,1718,-143
322112,1147,1730,-153
322152,1142,1706,-145
322225,1136,1722,-143
322232,1137,1726,-151
322294,1108,1774,-142
322355,1092,1778,-133
322363,1105,1766,-109
322452,1143,1688,-114
322464,1153,1687,-125
322471,1139,1715,-126
322512,1100,1812,-176
322552,1093,1806,-162
322592,1111,1765,-137
322632,1119,1711,-120
322672,1098,1693,-96
322712,1104,1712,-134
322752,1109,1750,-160
322815,1133,1772,-171
322832,1127,1765,-137
322872,1146,1745,-144
322952,1125,1759,-137
322962,1131,1763,-136
323015,1136,1739,-139
323067,1137,1735,-122
323072,1139,1742,-126
323112,1126,1755,-111
323152,1120,1711,-125
323224,1101,1772,-148
323232,1098,1774,-140
323271,1106,1793,-146
323311,1155,1795,-115
323363,1111,1715,-103
323392,1107,1754,-110
323431,1106,1724,-116
323472,1141,1790,-123
323513,1153,1745,-117
323553,1146,1782,-114
323615,1154,1648,-78
323674,1170,1679,-84
323718,1161,1688,-102
323759,1172,1816,-139
323773,1159,1796,-116
323816,1206,1741,-55
323832,1202,1748,-30
323873,1167,1630,-27
323913,1206,1608,-34
323953,1208,1679,-70
323993,1220,1716,-111
324076,1300,1623,-74
324083,1325,1613,-77
324113,1294,1580,-58
324153,1259,1598,-82
324193,1284,1588,-96
324233,1311,1601,-94
324273,1315,1551,-107
324313,1263,1583,-112
324366,1190,1696,-80
324428,1236,1663,2
324435,1248,1642,12
324475,1255,1604,7
324527,1310,1590,-18
324553,1339,1608,-21
324592,1337,1630,-91
324632,1301,1585,-149
324672,1212,1624,-186
324712,1213,1635,-160
324752,1214,1661,-105
324794,1259,1684,-82
324845,1233,1747,-80
324872,1254,1779,-47
324913,1213,1736,-84
324953,1205,1759,-118
324993,1216,1728,-141
325033,1293,1701,-103
325088,1263,1703,-89
325177,1141,1697,-134
325187,1141,1699,-133
325236,1172,1635,-119
325284,1205,1628,-60
325296,1190,1623,-58
325313,1190,1641,-51
325353,1160,1661,-63
325393,1141,1692,-53
325433,1161,1753,-44
325473,1257,1721,-40
325513,1258,1681,-70
325553,1327,1663,-124
325635,1296,1710,-171
325643,1293,1674,-167
325673,1289,1691,-173
325713,1282,1720,-159
325753,1157,1662,-118
325793,1124,1704,-126
325836,1048,1700,-109
325884,1056,1742,-49
325927,1087,1605,-31
326023,1126,1607,-164
326034,1123,1623,-182
326046,1109,1664,-202
326073,1121,1676,-235
326113,1156,1594,-286
326153,1200,1642,-318
326193,1298,1733,-349
326233,1283,1842,-356
326273,1254,2094,-373
326313,1248,2061,-269
326353,1128,2081,-261
326426,916,1853,-160
326436,897,1783,-143
326475,926,1715,-87
326536,944,1560,-59
326578,958,1609,-118
326628,1038,1559,-190
326632,1055,1569,-180
326674,1111,1689,-208
326714,1179,1772,-179
326754,1152,1813,-176
326828,1183,1822,-203
326836,1168,1841,-201
326874,1050,1892,-244
326914,1028,1777,-202
326954,1002,1739,-199
326994,995,1640,-193
327034,1051,1654,-250
327074,1078,1660,-321
327114,1092,1918,-367
327176,980,1958,-342
327226,932,1983,-209
327236,915,1990,-193
327285,861,2015,-122
327350,794,2002,-73
327356,797,1995,-72
327395,785,1864,-65
327435,851,1699,-59
327495,920,1556,-122
327515,989,1595,-143
327554,1015,1770,-199
327594,977,2127,-303
327638,1000,2127,-253
327674,1021,1928,-198
327714,952,1799,-128
327754,895,1750,-111
327794,847,1732,-114
327834,873,1715,-138
327875,880,1805,-177
327915,901,1896,-194
327955,903,1907,-177
328026,956,1857,-113
328036,957,1851,-117
328075,936,1859,-133
328136,907,1836,-165
328186,906,1800,-138
328229,933,1792,-152
328270,923,1785,-153
328279,941,1798,-151
328315,951,1808,-166
328355,953,1846,-159
328436,967,1862,-139
328445,967,1840,-135
328475,959,1840,-115
328515,982,1812,-126
328555,972,1775,-112
328595,949,1772,-137
328635,926,1799,-161
328675,947,1798,-142
328715,963,1780,-115
328755,956,1809,-121
328821,959,1883,-164
328866,963,1892,-114
328877,978,1866,-135
328927,1128,1605,-166
328986,1102,1761,-267
328995,1089,1814,-245
329035,836,2189,-362
329075,772,2315,-199
329115,793,2101,-23
329155,890,1791,164
329221,877,1641,96
329238,884,1675,8
329275,840,1679,-143
329315,869,1650,-286
329355,950,1678,-317
329396,1085,1713,-262
329436,1027,1802,-176
329476,929,1767,-79
329531,886,1838,-88
329580,984,1777,-187
329621,964,1866,-214
329633,932,1846,-238
329720,951,1957,-265
329738,952,1955,-245
329756,977,1938,-240
329796,912,1983,-293
329836,909,1942,-219
329876,861,2067,-194
329916,850,1884,-130
329956,792,1827,-124
330027,812,1819,-117
330036,836,1805,-139
330076,920,1808,-169
330116,906,1819,-214
330156,889,1831,-240
330197,889,1847,-249
330237,910,1853,-249
330290,887,1843,-237
330352,858,1889,-183
330358,852,1900,-169
330408,855,1885,-171
330508,870,1875,-172
330516,887,1888,-163
330526,879,1895,-175
330556,887,1859,-187
330597,904,1838,-200
330636,881,1856,-210
330677,897,1842,-210
330716,903,1849,-216
330757,914,1815,-216
330822,916,1849,-219
330837,940,1855,-218
330877,926,1872,-231
330917,924,1843,-200
330957,898,1844,-217
330997,915,1856,-210
331048,884,1860,-225
331101,929,1793,-208
331119,892,1775,-215
331169,881,1819,-226
331197,901,1802,-220
331241,921,1864,-216
331277,920,1873,-231
331317,939,1873,-235
331357,940,1905,-247
331397,967,1933,-271
331437,901,1981,-256
331477,916,1787,-188
331517,889,1489,-96
331557,960,1516,-131
331628,1055,1922,-247
331637,1047,2013,-283
331719,1013,2065,-291
331729,999,2019,-268
331770,861,1920,-225
331838,765,1549,-111
331847,775,1502,-87
331878,808,1549,-99
331918,895,1591,-157
331957,878,1792,-179
331997,901,2168,-262
332037,971,2171,-272
332151,852,1818,-181
332158,858,1785,-169
332167,860,1771,-165
332197,830,1661,-161
332238,897,1669,-176
332278,909,1724,-249
332318,889,1890,-293
332358,912,1928,-262
332429,993,1894,-260
332438,986,1936,-286
332478,943,1931,-281
332518,878,1943,-267
332558,836,1919,-235
332599,822,1846,-199
332638,802,1822,-197
332692,825,1828,-202
332792,862,1865,-256
332835,858,1881,-259
332882,871,1931,-241
332886,877,1931,-252
332891,888,1923,-251
332918,911,1889,-237
332959,906,1852,-263
332999,892,1922,-281
333039,893,1966,-283
333079,832,1945,-268
333119,850,1594,-152
333159,936,1539,-97
333230,884,2089,-384
333238,873,2143,-391
333279,922,2171,-424
333319,1015,1810,-270
333358,922,1862,-266
333399,756,1944,-244
333491,746,1771,-51
333499,751,1783,-49
333550,790,1632,-78
333561,806,1638,-81
333599,896,1815,-206
333648,954,1794,-307
333678,1012,1809,-385
333718,964,1918,-411
333758,945,1877,-388
333799,913,1912,-374
333839,910,1946,-364
333879,863,1890,-302
333919,855,1934,-299
333959,863,1961,-297
334023,841,1918,-291
334039,837,1909,-261
334143,835,1842,-249
334153,836,1854,-235
334211,849,1849,-268
334255,862,1843,-244
334256,879,1872,-261
334279,880,1859,-299
334319,868,1910,-308
334359,874,1870,-304
334422,864,1856,-275
334439,841,1847,-279
334479,827,1845,-267
334520,868,1830,-271
334559,863,1842,-282
334599,862,1892,-267
334639,864,1862,-287
334679,871,1880,-276
334719,906,1871,-276
334759,880,1875,-267
334838,887,1879,-253
334852,856,1874,-254
334903,879,1859,-250
334913,873,1835,-263
334970,861,1837,-281
334999,835,1832,-300
335039,860,1847,-276
335079,870,1864,-272
335120,886,1855,-262
335159,833,1873,-266
335224,874,1866,-273
335239,863,1881,-259
335280,876,1887,-284
335320,874,1868,-275
335360,859,1882,-272
335399,844,1887,-270
335440,871,1880,-269
335513,875,1872,-263
335554,859,1875,-276
335572,865,1881,-275
335655,878,1856,-280
335705,860,1852,-288
335710,858,1849,-268
335721,856,1850,-262
335761,868,1870,-267
335801,877,1862,-276
335831,870,1868,-283
335871,891,1857,-262
335921,908,1872,-259
335961,880,1871,-271
336020,876,1839,-248
336030,870,1830,-251
336080,863,1859,-280
336111,854,1817,-254
336161,875,1815,-286
336200,864,1874,-296
336263,884,1825,-280
336270,913,1831,-273
336311,894,1881,-301
336351,908,1914,-283
336412,902,1875,-273
336431,895,1874,-261
336471,871,1869,-263
336544,902,1787,-269
336597,872,1882,-274
336601,877,1886,-284
336645,897,1816,-259
336680,909,1784,-275
336720,884,1830,-293
336751,880,1872,-313
336840,957,1885,-330
336851,948,1911,-336
336871,940,1917,-333
336910,892,1954,-298
336951,854,1909,-255
336992,843,1841,-245
337032,843,1860,-261
337072,869,1839,-252
337111,885,1825,-276
337152,888,1849,-314
337198,865,1889,-320
337245,891,1864,-322
337296,897,1869,-305
337348,873,1891,-291
337352,866,1900,-296
337392,868,1844,-255
337431,881,1768,-237
337471,879,1807,-259
337512,890,1826,-271
337551,914,1939,-339
337616,868,2062,-352
337631,852,2087,-346
337671,831,1924,-254
337711,815,1890,-215
337751,825,1834,-204
337791,853,1746,-221
337831,893,1798,-273
337913,933,1809,-297
337962,958,1760,-251
337965,954,1760,-242
338016,922,1817,-276
338094,887,1929,-278
338105,878,1918,-284
338113,893,1906,-283
338152,899,1823,-245
338191,904,1849,-254
338231,869,1711,-206
338271,912,1729,-242
338312,927,1839,-284
338351,868,1982,-354
338415,873,2074,-361
338432,895,1962,-289
338472,867,1849,-253
338512,809,1823,-213
338552,800,1775,-217
338592,824,1723,-213
338647,905,1733,-253
338714,909,1969,-388
338723,898,2014,-411
338773,909,2032,-374
338792,917,1975,-357
338855,866,1820,-255
338872,846,1805,-262
338912,816,1813,-278
338952,822,1801,-306
338993,826,1832,-304
339032,894,1868,-321
339072,896,1885,-316
339112,927,1911,-278
339152,901,1903,-307
339215,864,1937,-340
339232,856,1894,-330
339314,824,1917,-326
339326,832,1853,-281
339375,882,1628,-229
339425,964,1716,-315
339468,909,1943,-417
339474,885,2008,-442
339512,877,2158,-457
339552,966,2005,-371
339624,853,1800,-275
339632,848,1817,-282
339673,808,1740,-242
339712,829,1736,-265
339752,881,1646,-267
339792,904,1802,-310
339833,913,1944,-366
339873,914,2051,-396
339913,920,2033,-375
339953,906,1932,-299
340017,846,1754,-217
340066,835,1643,-239
340074,854,1652,-238
340117,844,1800,-301
340167,874,1970,-384
340194,909,2007,-397
340233,923,1980,-337
340274,917,1946,-285
340313,867,1830,-229
340354,860,1765,-216
340424,859,1837,-321
340434,884,1851,-348
340474,891,1936,-393
340515,920,1927,-369
340564,931,1866,-312
340593,906,1829,-305
340634,878,1834,-312
340674,869,1838,-330
340718,888,1843,-324
340847,914,1880,-330
340850,922,1876,-326
340855,923,1894,-335
340908,918,1879,-308
340914,903,1861,-330
340953,886,1854,-320
340993,869,1840,-308
341033,859,1831,-310
341073,874,1819,-304
341114,877,1837,-312
341153,875,1851,-308
341216,875,1846,-295
341234,863,1862,-301
341274,877,1843,-306
341313,860,1875,-274
341354,887,1881,-302
341395,891,1879,-277
341496,879,1783,-287
341506,922,1812,-306
341515,925,1809,-328
341566,939,1876,-384
341607,927,1952,-430
341656,859,1995,-398
341674,838,1991,-363
341714,815,1890,-259
341754,807,1902,-216
341794,736,1915,-217
341834,685,1896,-191
341874,734,1785,-184
341915,840,1724,-249
341954,855,1796,-326
342026,865,1851,-343
342035,866,1876,-351
342075,930,1859,-313
342144,859,1967,-237
342184,975,1801,-253
342195,979,1774,-291
342246,1027,1900,-416
342274,973,2062,-524
342314,867,2178,-485
342355,843,1861,-319
342417,720,1782,-218
342434,683,1830,-228
342474,690,1806,-201
342514,763,1809,-233
342554,867,1721,-271
342595,873,1820,-348
342635,870,1872,-348
342674,848,1890,-335
342714,890,1883,-288
342815,868,1901,-255
342827,859,1891,-237
342866,874,1881,-312
342877,893,1865,-317
342938,919,1892,-353
342955,919,1929,-346
342995,865,1930,-349
343035,860,1907,-341
343076,880,1754,-388
343115,912,1741,-412
343156,913,1714,-414
343220,847,1853,-393
343235,822,1876,-364
343276,749,2062,-331
343315,755,2008,-186
343355,794,1921,-172
343396,796,1892,-193
343436,764,1849,-257
343480,791,1828,-331
343538,850,1771,-376
343637,931,1965,-455
343677,893,2072,-449
343686,889,2070,-456
343696,890,2053,-436
343715,912,2041,-412
343755,857,1980,-359
343795,818,1816,-328
343835,788,1683,-317
343875,836,1665,-321
343915,837,1795,-424
343956,867,1965,-512
344019,909,2048,-514
344036,917,2015,-459
344075,852,1924,-415
344115,782,1845,-332
344156,736,1778,-322
344234,767,1738,-332
344247,757,1858,-380
344340,840,1919,-367
344348,850,1894,-352
344356,855,1907,-365
344396,841,1908,-368
344437,815,1906,-370
344478,801,1885,-384
344517,795,1871,-408
344557,772,1878,-451
344628,790,1868,-433
344637,766,1888,-457
344676,799,1885,-441
344717,802,1883,-404
344757,808,1864,-393
344796,806,1898,-395
344837,793,1879,-422
344898,816,1881,-440
344948,787,1936,-450
344999,775,1941,-454
345007,778,1936,-455
345048,831,1967,-476
345076,833,1943,-461
345116,815,1960,-490
345157,822,1928,-468
345231,849,1928,-389
345237,842,1927,-419
345277,794,1968,-396
345316,755,1927,-358
345356,761,1914,-319
345397,743,1881,-281
345436,776,1899,-186
345477,740,1962,-141
345516,775,1986,-97
345557,790,1864,17
345608,684,1812,145
345646,671,1848,175
345712,626,1837,253
345718,637,1863,265
345761,689,1854,338
345818,660,1740,414
345837,658,1777,428
345877,639,1771,483
345917,696,1835,510
345958,659,1773,550
346018,724,1722,577
346037,693,1698,599
346077,664,1716,617
346117,664,1750,632
346157,652,1675,650
346197,697,1655,693
346237,700,1613,748
346277,774,1702,836
346349,831,1926,702
346359,744,1725,693
346404,675,1813,596
346458,1452,1501,614
346473,711,1466,653
346518,784,1854,563
346557,619,1684,587
346597,620,1830,594
346637,687,1781,602
346677,658,1783,579
346717,648,1804,576
346757,682,1756,594
346822,685,1741,578
346837,679,1747,576
346877,692,1752,578
346917,1663,1884,895
346957,26,1812,406
346997,849,1681,675
347060,685,1770,590
347114,690,1754,576
347121,677,1767,586
347163,668,1751,577
347212,669,1761,590
347260,681,1715,595
347271,676,1723,621
347318,669,1714,587
347358,682,1743,586
347398,650,1755,580
347438,687,1753,591
347479,706,1741,570
347519,712,1756,598
347558,691,1805,575
347621,696,1786,564
347638,690,1797,576
347678,674,1800,563
347753,694,1737,570
347759,694,1734,563
347811,722,1718,564
347853,743,1743,561
347878,706,1746,574
347918,721,1757,573
347959,701,1780,566
348030,692,1727,568
348040,684,1742,569
348078,704,1687,565
348118,690,1731,566
348159,684,1739,535
348198,700,1754,526
348239,721,1757,541
348278,743,1752,563
348319,697,1783,543
348358,702,1765,578
348408,712,1776,563
348499,725,1730,573
348511,730,1736,574
348551,715,1751,558
348593,712,1751,564
348601,707,1744,542
348639,716,1745,532
348679,734,1748,526
348730,734,1744,530
348759,730,1730,533
348800,752,1747,536
348839,714,1771,544
348885,727,1751,572
348919,725,1783,556
348959,716,1733,552
348999,716,1777,532
349039,720,1763,525
349080,736,1714,517
349119,717,1733,508
349160,743,1714,517
349222,749,1747,514
349240,769,1746,517
349279,785,1765,499
349319,771,1803,503
349431,758,1772,485
349440,748,1772,470
349481,830,1725,462
349526,858,1722,471
349540,853,1654,429
349560,853,1622,403
349600,829,1663,400
349663,769,1741,380
349679,804,1792,395
349719,764,1826,402
349759,758,1852,429
349799,786,1802,463
349840,756,1871,446
349879,704,1867,446
349919,697,1843,455
349959,721,1833,489
350023,729,1745,466
350031,740,1739,448
350075,736,1742,447
350130,672,1786,399
350180,665,1774,414
350200,718,1799,407
350240,655,1840,430
350280,712,1800,452
350311,695,1791,461
350360,644,1739,416
350424,608,1741,364
350430,624,1725,389
350480,576,1834,377
350511,631,1927,379
350560,676,1854,432
350591,665,1938,427
350640,574,1913,446
350671,608,1908,427
350712,602,1861,396
350767,645,1870,389
350824,520,1771,406
350833,544,1923,386
350874,581,1909,443
350921,636,1942,419
350960,596,1828,443
351000,601,1822,445
351041,590,1790,431
351081,566,1779,418
351120,618,1830,419
351161,607,1831,376
351227,631,1755,393
351230,645,1752,421
351280,636,1818,413
351321,607,1813,388
351361,615,1836,379
351421,627,1863,413
351466,621,1834,398
351472,622,1811,399
351515,559,1791,415
351563,601,1764,415
351623,539,1860,379
351631,545,1861,411
351671,598,1815,432
351711,579,1879,434
351751,524,1853,433
351792,525,1889,438
351831,517,1890,419
351871,563,1836,447
351912,541,1897,393
351951,553,1892,402
352024,535,1872,388
352042,553,1861,383
352072,560,1840,408
352112,555,1869,400
352161,589,1870,396
352207,591,1884,405
352232,594,1888,375
352272,580,1832,372
352311,596,1864,367
352352,594,1854,401
352414,581,1822,421
352432,576,1822,401
352471,565,1853,404
352511,571,1847,408
352552,572,1848,419
352591,564,1836,411
352631,586,1830,425
352672,575,1824,389
352711,570,1859,404
352763,558,1875,404
352843,548,1876,426
352854,561,1834,429
352872,563,1863,415
352913,551,1864,435
352952,572,1866,434
353003,608,1823,447
353032,595,1873,430
353073,639,1833,432
353112,638,1871,384
353163,649,1843,398
353192,649,1868,441
353232,679,1844,453
353272,660,1820,453
353313,610,1876,452
353353,639,1824,434
353392,669,1779,439
353432,603,1751,431
353473,614,1717,412
353512,679,1801,444
353552,707,1806,465
353617,740,1776,458
353634,729,1809,450
353672,756,1806,461
353724,724,1835,453
353773,688,1805,447
353826,634,1759,485
353833,648,1744,495
353873,659,1757,495
353912,626,1786,506
353952,605,1788,494
354016,596,1794,500
354035,606,1799,474
354073,620,1734,483
354113,612,1790,481
354152,639,1765,481
354192,623,1741,492
354233,631,1770,486
354273,627,1739,462
354313,643,1809,511
354353,616,1793,555
354417,612,1824,570
354464,648,1811,551
354475,644,1826,541
354535,575,1804,514
354578,561,1835,491
354594,568,1830,481
354633,574,1826,480
354673,579,1783,478
354713,570,1803,466
354753,570,1802,503
354816,522,1823,478
354835,545,1834,456
354873,520,1825,468
354913,525,1826,439
354953,525,1824,451
354993,525,1862,428
355033,507,1904,455
355073,526,1865,442
355113,527,1874,458
355175,514,1887,484
355194,522,1887,487
355275,486,1903,452
355284,492,1902,456
355326,507,1862,445
355353,502,1865,445
355393,478,1860,407
355433,518,1846,411
355473,544,1870,491
355513,603,1972,450
355553,659,1773,404
355625,798,1985,317
355634,844,2031,493
355674,296,2097,396
355715,995,2140,255
355754,346,1711,438
355794,498,1790,504
355834,451,1809,501
355878,672,1809,408
355937,635,1885,419
355978,103,1930,488
356028,858,1808,603
356034,674,1728,425
356074,201,1839,454
356114,498,1830,381
356154,502,1819,521
356195,878,2516,445
356234,405,1933,383
356275,468,1907,427
356314,453,1932,383
356355,497,1939,405
356417,525,1998,333
356437,389,1945,339
356474,477,1923,321
356515,418,2024,238
356585,437,1911,269
356596,486,1944,264
356670,487,1905,321
356686,437,1868,306
356737,376,1902,341
356784,429,1917,317
356824,415,1943,315
356837,283,2068,364
356875,315,1853,306
356915,431,1945,330
356955,406,1782,325
356995,321,1876,287
357035,462,1844,300
357075,442,1865,344
357115,334,1990,315
357155,267,1808,435
357220,293,1859,413
357235,299,1849,416
357275,311,1848,457
357325,225,1860,424
357357,293,1840,436
357395,326,1930,460
357466,347,1913,433
357475,312,1919,432
357516,205,1922,410
357556,397,1852,441
357608,299,1883,378
357667,397,1725,454
357678,577,1692,504
357727,267,1958,308
357755,450,1860,415
357795,301,1937,366
357835,218,1955,393
357875,262,1937,476
357915,212,1939,393
357955,298,1886,421
358027,310,1776,333
358046,360,1833,440
358075,39,1969,390
358115,225,1993,345
358155,304,1778,421
358195,154,1877,439
358276,215,1775,255
358320,10,1896,528
358326,336,1988,353
358379,767,1841,161
358396,623,1675,118
358468,-36,1735,619
358479,460,1610,566
358516,364,2005,581
358556,405,1977,477
358596,426,1913,413
358637,408,2027,347
358676,405,1761,313
358716,465,1861,376
358757,425,1781,400
358821,474,1696,462
358837,467,1756,506
358877,458,1892,478
358928,439,1778,526
358980,445,1841,535
359029,341,1863,562
359070,444,1796,592
359076,424,1687,602
359116,413,1883,587
359156,402,1789,609
359220,412,1865,597
359238,442,1867,565
359277,392,1829,563
359317,431,1811,560
359356,448,1843,555
359396,423,1809,567
359436,416,1788,578
359477,432,1898,539
359517,413,1741,562
359557,510,1868,559
359618,449,1825,568
359658,440,1770,546
359676,432,1726,578
359729,397,1891,529
359778,446,1824,572
359797,467,1821,616
359837,480,1749,613
359877,573,1932,587
359917,434,1735,564
359957,527,1927,504
360029,396,1771,734
360071,507,1741,591
360079,480,1799,561
360117,449,1709,485
360157,391,1895,769
360197,415,1473,673
360237,470,1892,608
360277,465,1758,632
360329,474,1741,610
360379,483,1797,608
360461,523,1882,475
360470,556,1886,481
360478,551,1881,483
360517,531,1862,474
360557,507,1842,437
360597,520,1912,444
360637,525,1850,423
360677,504,1855,441
360717,513,1832,437
360758,503,1840,423
360820,501,1820,428
360837,531,1834,431
360877,527,1872,447
360917,532,1864,423
360957,528,1889,433
361019,525,1870,433
361069,521,1820,437
361120,502,1846,425
361128,492,1841,420
361188,498,1843,402
361198,526,1842,430
361263,534,1828,436
361272,536,1830,476
361318,507,1854,462
361358,525,1845,432
361398,537,1889,399
361438,516,1878,435
361478,535,1858,444
361519,534,1862,434
361558,558,1842,434
361621,515,1866,433
361639,535,1857,435
361678,531,1803,457
361760,532,1834,446
361769,565,1832,423
361798,558,1831,455
361839,551,1844,454
361913,544,1850,452
361920,558,1851,426
361980,544,1837,416
362029,532,1866,413
362038,520,1868,413
362079,543,1824,422
362119,552,1840,436
362159,547,1852,442
362198,553,1858,449
362238,552,1855,442
362278,533,1857,421
362318,523,1857,431
362358,548,1830,432
362398,544,1860,433
362459,510,1816,408
362480,535,1816,439
362520,526,1844,432
362581,549,1841,427
362631,537,1898,432
362632,534,1889,415
362670,545,1888,399
362711,542,1870,415
362760,534,1831,429
362800,524,1907,390
362848,537,1852,406
362879,538,1846,413
362919,535,1868,432
362959,535,1856,435
363000,537,1861,415
363040,533,1840,399
363079,539,1877,402
363119,549,1842,409
363160,539,1860,408
363200,533,1849,398
363302,527,1835,401
363310,525,1854,411
363311,528,1835,405
363360,548,1857,406
363401,534,1836,396
363439,549,1845,401
363479,529,1831,428
363519,542,1834,412
363560,538,1836,415
363599,533,1868,402
363661,546,1834,416
363670,553,1824,427
363719,546,1853,400
363759,542,1855,424
363799,548,1874,388
363839,520,1875,402
363881,545,1849,422
363955,554,1870,399
363961,527,1875,419
364013,523,1872,397
364055,542,1880,416
364110,525,1885,403
364120,532,1872,410
364151,537,1843,412
364191,555,1842,417
364231,553,1867,401
364271,549,1846,383
364311,543,1844,400
364361,552,1860,422
364391,566,1848,405
364461,556,1825,409
364480,575,1844,398
364511,562,1856,391
364551,548,1841,411
364600,550,1850,410
364652,550,1837,424
364700,552,1846,393
364742,531,1847,415
364752,515,1852,416
364795,541,1853,424
364902,535,1866,409
364910,534,1873,398
364920,541,1869,408
364960,551,1848,416
365000,560,1846,412
365040,562,1847,426
365080,564,1869,408
365120,566,1860,410
365160,575,1876,411
365200,560,1842,398
365262,558,1849,389
365271,547,1847,379
365312,564,1826,379
365351,574,1842,398
365433,554,1873,406
365437,557,1870,403
365493,557,1838,420
365512,582,1842,410
365552,541,1844,396
365591,548,1880,378
365654,590,1869,399
365671,583,1871,398
365711,563,1870,406
365752,565,1842,416
365811,561,1823,403
365832,554,1823,422
365872,551,1835,393
365912,556,1809,413
365951,547,1844,416
365991,557,1847,403
366073,558,1851,408
366084,555,1865,393
366128,568,1830,386
366185,564,1861,400
366191,553,1865,390
366231,560,1857,392
366271,560,1857,400
366311,552,1837,393
366351,540,1830,395
366391,552,1871,404
366456,547,1869,408
366471,549,1859,411
366511,541,1851,403
366551,565,1883,389
366591,562,1865,413
366631,533,1888,394
366671,562,1887,403
366732,561,1874,394
366784,557,1846,402
366793,559,1847,387
366833,543,1845,383
366916,553,1847,375
366922,550,1859,382
366953,561,1859,380
366992,552,1850,386
367032,561,1853,410
367072,562,1845,401
367112,547,1887,391
367152,559,1847,383
367192,565,1844,399
367256,556,1846,393
367272,567,1858,407
367312,576,1861,410
367352,547,1838,400
367392,558,1857,408
367463,538,1831,391
367503,593,1840,370
367513,562,1838,383
367564,566,1880,391
367592,566,1881,392
367658,568,1861,393
367673,581,1865,391
367712,561,1861,398
367752,559,1834,377
367792,568,1835,374
367832,563,1824,375
367872,581,1847,349
367912,576,1847,366
367952,568,1892,371
367992,584,1902,398
368064,599,1864,392
368105,563,1854,376
368116,564,1851,393
368166,570,1850,379
368215,568,1844,373
368233,577,1851,381
368273,579,1861,368
368313,565,1875,362
368353,571,1877,369
368393,563,1868,380
368457,559,1834,375
368473,555,1821,371
368513,536,1825,381
368553,558,1833,390
368593,547,1846,399
368633,550,1873,406
368673,565,1873,402
368713,554,1864,416
368773,548,1846,391
368813,558,1869,399
368873,552,1859,359
368925,556,1848,367
368935,553,1839,381
368976,549,1819,372
368993,562,1832,392
369033,538,1863,393
369073,540,1864,413
369113,534,1868,396
369153,542,1844,404
369193,554,1866,413
369258,546,1865,387
369273,545,1868,399
369313,530,1856,384
369353,531,1856,386
369393,543,1844,366
369433,552,1861,390
369473,561,1860,382
369519,552,1872,368
369567,534,1870,392
369674,531,1867,398
369686,532,1872,375
369695,528,1864,370
369714,544,1866,367
369755,531,1862,382
369815,542,1863,363
369834,533,1861,394
369874,556,1858,383
369915,523,1833,377
369954,544,1857,407
369994,549,1857,377
370034,551,1877,379
370074,543,1854,376
370114,526,1852,360
370156,536,1855,368
370225,552,1878,384
370265,529,1878,383
370278,525,1878,386
370357,557,1866,414
370368,576,1861,388
370394,527,1890,391
370434,528,1849,377
370498,547,1859,357
370516,546,1855,378
370554,552,1851,368
370594,558,1866,366
370634,565,1839,356
370674,560,1870,360
370714,563,1868,386
370754,581,1849,377
370794,556,1872,387
370858,563,1888,388
370915,555,1849,381
370926,563,1853,380
371003,557,1871,373
371017,535,1837,366
371035,578,1847,367
371075,536,1860,373
371115,526,1856,356
371155,549,1857,360
371195,535,1863,372
371259,555,1862,380
371276,545,1882,388
371315,574,1868,366
371355,554,1873,361
371395,555,1862,389
371435,560,1849,369
371475,554,1834,368
371515,547,1845,380
371567,523,1868,347
371619,551,1862,363
371696,567,1884,348
371707,554,1888,357
371717,541,1891,373
371755,554,1863,369
371795,540,1860,368
371835,541,1903,377
371876,526,1864,365
371915,557,1867,369
371955,514,1869,367
371995,519,1878,379
372057,510,1877,377
372075,519,1875,385
372115,526,1858,379
372155,514,1836,365
372195,519,1900,366
372258,525,1855,384
372276,539,1866,371
372330,545,1876,369
372388,542,1879,362
372470,538,1879,371
372480,524,1880,367
372487,516,1875,367
372516,547,1856,367
372556,525,1869,378
372596,528,1850,366
372636,531,1864,340
372676,518,1859,358
372716,521,1847,386
372756,521,1879,402
372796,524,1880,365
372860,530,1900,368
372876,526,1891,380
372916,536,1879,372
372978,534,1854,385
373028,519,1873,375
373070,531,1876,363
373076,522,1865,368
373127,516,1875,382
373156,529,1871,369
373196,536,1867,364
373278,535,1865,355
373287,528,1873,353
373316,529,1857,372
373356,543,1861,354
373396,548,1878,370
373436,527,1886,368
373476,538,1871,375
373516,541,1864,396
373556,519,1878,363
373596,531,1877,373
373660,513,1883,370
373742,506,1827,351
373758,548,1867,341
373807,536,1852,355
373810,520,1845,360
373837,528,1864,374
373877,533,1867,358
373948,561,1887,374
373957,563,1870,357
373997,557,1883,364
374037,553,1872,367
374077,527,1866,362
374129,540,1880,335
374157,524,1900,341
374197,514,1851,361
374237,556,1787,356
374277,585,1797,321
374317,549,1940,289
374357,538,2017,320
374397,526,2019,355
374470,508,1909,443
374478,500,1920,425
374517,489,1864,457
374557,471,1799,451
374629,487,1783,443
374671,520,1853,460
374679,545,1847,466
374727,532,1813,504
374772,522,1877,465
374797,538,1809,451
374837,590,1818,404
374911,607,1821,298
374919,593,1820,291
374957,609,1836,269
374997,612,1814,278
375038,622,1800,261
375078,604,1807,297
375118,609,1836,317
375158,569,1893,345
375198,608,1904,405
375262,593,1935,420
375279,560,1936,419
375320,510,1920,402
375364,489,1875,410
375410,506,1855,437
375438,512,1860,414
375478,528,1817,404
375518,538,1809,378
375558,535,1845,366
375598,537,1884,356
375663,577,1871,376
375680,579,1854,368
375718,582,1858,365
375758,555,1908,352
375798,561,1864,364
375838,536,1846,362
375878,531,1847,375
375918,542,1843,373
375961,551,1850,366
376010,539,1868,362
376064,557,1873,375
376144,555,1873,367
376149,574,1863,337
376161,578,1826,339
376198,584,1879,328
376238,561,1911,339
376278,582,1876,342
376318,585,1888,301
376358,593,1909,318
376398,553,1916,305
376461,582,1844,318
376479,587,1828,312
376519,565,1852,294
376559,527,1839,314
376599,537,1805,319
376640,561,1829,335
376704,569,1900,352
376762,567,1866,322
376772,585,1864,339
376819,566,1866,335
376839,581,1849,319
376912,564,1923,305
376919,574,1923,308
376959,571,1901,293
376999,579,1901,307
377039,555,1899,297
377079,525,1904,325
377119,532,1872,335
377159,544,1870,309
377199,532,1904,320
377263,556,1874,315
377279,532,1882,313
377355,558,1856,307
377359,546,1850,293
377420,523,1871,289
377471,539,1852,277
377479,549,1866,297
377520,531,1878,250
377559,522,1862,253
377599,538,1884,288
377672,513,1894,312
377679,516,1906,300
377720,535,1910,318
377760,514,1930,294
377799,511,1886,279
377839,515,1919,260
377880,485,1878,237
377920,456,1929,233
377960,455,1876,265
378030,492,1875,301
378076,518,1860,271
378082,524,1878,264
378121,501,1965,257
378175,505,1958,263
378191,522,1958,242
378232,514,1942,236
378271,492,1949,239
378321,469,1928,245
378350,447,1922,231
378401,442,1882,221
378431,448,1902,223
378481,448,1931,224
378535,462,1914,234
378551,448,1936,239
378600,449,1914,244
378640,437,1926,253
378671,456,1929,253
378711,461,1927,260
378751,461,1935,262
378800,428,1946,279
378863,436,1916,271
378873,445,1900,264
378920,443,1915,271
378960,440,1921,226
378991,431,1948,230
379040,444,1928,254
379092,434,1890,276
379111,428,1894,275
379152,441,1912,255
379194,449,1891,270
379231,451,1913,255
379293,435,1922,244
379320,425,1938,239
379351,414,1892,266
379391,376,1938,266
379431,344,1924,266
379471,337,1891,261
379511,373,1885,277
379551,396,1879,292
379592,314,1898,326
379656,380,1951,227
379671,395,2098,194
379746,398,2059,225
379753,372,2089,225
379803,370,1927,318
379853,331,1870,273
379871,331,1913,263
379911,336,1902,250
379951,331,1891,234
379992,333,1912,236
380054,371,2002,194
380072,372,2017,169
380111,416,1943,192
380152,435,2026,146
380191,397,1939,159
380232,397,1976,115
380271,371,1932,115
380312,367,1847,134
380351,365,2009,121
380413,379,2002,185
380452,429,1907,144
380473,410,1949,76
380524,383,1966,83
380572,391,1973,94
380631,408,2058,51
380642,383,2164,31
380671,402,2079,69
380712,372,1886,230
380752,434,2182,174
380792,379,2049,301
380856,395,1827,464
380871,388,1914,458
380912,410,2069,520
380952,308,1783,786
380993,442,1414,892
381033,448,1533,946
381072,472,1368,1105
381113,427,1498,1070
381174,403,1399,1257
381255,494,1511,1245
381264,480,1518,1252
381303,453,1471,1267
381315,398,1057,1397
381373,417,1043,1504
381392,436,896,1515
381432,417,997,1432
381473,401,909,1557
381512,402,885,1556
381552,364,902,1628
381592,442,806,1588
381664,427,688,1639
381674,411,719,1644
381712,368,746,1610
381753,254,606,1681
381792,363,430,1751
381833,315,630,1758
381872,357,486,1806
381915,351,426,1850
381966,320,634,1785
382053,332,424,1744
382105,269,460,1751
382115,280,445,1775
382123,288,439,1776
382153,298,390,1774
382193,306,413,1785
382233,327,415,1803
382273,277,189,1825
382313,318,231,1766
382353,306,422,1799
382393,320,296,1820
382465,323,272,1820
382475,284,207,1843
382513,326,395,1779
382553,292,427,1816
382593,331,270,1755
382665,319,424,1807
382674,309,445,1808
382713,313,411,1755
382754,315,317,1741
382813,314,470,1823
382834,326,345,1798
382874,296,402,1784
382914,312,357,1768
382977,293,511,1812
383014,324,317,1797
383068,382,215,1837
383076,371,324,1779
383113,302,394,1787
383153,288,448,1851
383193,352,316,1817
383233,332,310,1860
383308,299,330,1828
383324,277,397,1789
383353,324,327,1791
383394,345,467,1789
383433,351,426,1753
383473,351,416,1770
383513,361,413,1742
383554,373,441,1766
383665,370,309,1792
383675,338,343,1797
383717,344,363,1816
383728,361,395,1789
383785,361,423,1784
383834,367,303,1780
383845,365,322,1800
383874,358,493,1802
383914,339,452,1817
383954,364,333,1829
383994,398,371,1762
384059,362,480,1807
384075,379,410,1784
384115,387,459,1753
384154,353,476,1761
384195,373,490,1741
384234,391,412,1742
384275,386,463,1746
384315,374,406,1769
384368,373,446,1778
384405,379,468,1815
384468,391,407,1794
384510,394,437,1801
384518,356,438,1812
384555,395,431,1790
384595,410,447,1761
384635,330,429,1779
384675,388,394,1745
384715,401,542,1753
384755,382,460,1744
384795,381,416,1817
384858,391,482,1772
384875,381,434,1796
384915,390,430,1764
384955,393,464,1786
384995,399,402,1804
385057,402,422,1766
385109,393,420,1741
385113,368,427,1743
385178,357,308,1797
385196,366,344,1777
385266,375,335,1794
385277,368,362,1802
385315,374,414,1791
385355,377,375,1773
385396,362,375,1785
385435,399,442,1752
385476,400,346,1789
385516,353,337,1794
385556,336,404,1784
385596,321,361,1807
385667,370,504,1793
385677,374,537,1788
385731,354,337,1789
385779,345,492,1789
385873,390,461,1722
385888,398,543,1748
385895,376,574,1740
385916,372,582,1735
385955,369,418,1739
385996,357,541,1758
386068,366,492,1758
386077,370,473,1760
386116,371,492,1751
386156,356,525,1787
386196,378,473,1802
386236,366,551,1767
386276,381,461,1769
386316,382,513,1725
386356,365,490,1754
386438,355,529,1740
386479,380,464,1737
386487,383,511,1759
386556,360,600,1744
386599,347,374,1822
386600,351,370,1802
386637,343,540,1778
386677,357,419,1754
386717,382,452,1781
386757,380,549,1735
386797,375,397,1765
386867,378,547,1758
386877,370,485,1746
386918,339,373,1742
386956,370,482,1779
386996,374,487,1763
387036,381,480,1775
387077,357,477,1745
387119,365,527,1765
387187,390,467,1747
387199,384,455,1773
387288,400,477,1760
387299,414,491,1737
387316,415,546,1719
387388,391,538,1761
387399,387,532,1783
387437,368,540,1767
387477,388,474,1779
387517,404,486,1742
387557,399,482,1756
387597,386,507,1741
387669,415,521,1739
387678,423,508,1746
387716,427,489,1746
387756,430,498,1741
387798,434,508,1724
387860,420,558,1758
387914,409,508,1751
387917,408,526,1753
387970,418,483,1737
388019,421,557,1730
388069,422,497,1745
388088,396,507,1776
388118,416,555,1767
388158,388,489,1773
388198,420,565,1751
388238,391,527,1746
388278,399,510,1732
388318,426,552,1722
388358,415,497,1726
388398,388,532,1713
388469,410,490,1725
388479,396,496,1738
388518,418,541,1746
388559,420,502,1763
388620,408,558,1768
388669,415,504,1753
388678,404,534,1741
388718,393,542,1738
388758,410,553,1742
388798,408,503,1728
388870,405,473,1688
388878,387,491,1748
388917,381,523,1775
388957,385,565,1752
388997,374,552,1753
389037,396,559,1740
389077,412,660,1695
389117,437,512,1738
389157,399,534,1765
389210,434,564,1741
389297,410,608,1714
389303,408,577,1712
389320,406,562,1744
389362,413,611,1703
389431,433,632,1720
389437,427,634,1707
389479,454,672,1706
389519,433,595,1703
389559,463,732,1692
389599,430,701,1678
389670,451,708,1665
389679,454,724,1683
389719,439,765,1731
389759,458,757,1658
389799,459,743,1689
389839,453,791,1645
389879,471,774,1618
389919,460,757,1627
389983,476,941,1554
390033,500,917,1584
390041,503,914,1569
390121,519,980,1549
390131,521,1006,1547
390192,501,964,1485
390198,515,949,1471
390238,492,986,1459
390278,537,1229,1429
390318,521,1043,1455
390358,534,973,1421
390398,525,1000,1443
390470,540,1109,1353
390480,565,1083,1347
390520,514,1412,1333
390558,559,1482,1284
390598,549,1299,1269
390638,542,1284,1232
390680,523,1373,1254
390740,538,1349,1259
390791,574,1378,1278
390842,568,1361,1272
390899,573,1235,1279
390910,550,1280,1269
390919,556,1348,1234
390959,575,1382,1184
391000,550,1382,1156
391039,557,1477,1093
391079,595,1515,1021
391120,630,1550,1061
391152,609,1684,1025
391199,617,1582,987
391239,632,1499,968
391279,638,1459,962
391319,641,1617,912
391401,669,1718,836
391406,668,1666,821
391451,695,1780,830
391511,699,1587,773
391520,727,1486,781
391559,750,1462,780
391599,688,1659,749
391666,823,1509,614
391679,780,1557,652
391719,805,1762,554
391759,745,1645,636
391799,853,1602,649
391839,868,1658,626
391879,832,1646,595
391919,740,1678,514
391959,883,1734,570
391999,864,1594,540
392063,818,1586,574
392112,874,1783,574
392155,861,1720,613
392164,863,1702,632
392214,926,1684,675
392262,917,1692,680
392291,959,1742,625
392320,958,1703,592
392360,927,1557,636
392400,947,1541,572
392464,892,1669,568
392471,899,1633,588
392520,936,1568,582
392560,961,1604,567
392600,993,1703,545
392640,956,1651,586
392680,957,1712,553
392720,946,1715,523
392760,922,1642,576
392861,876,1699,559
392870,886,1706,559
392954,834,1648,591
392963,874,1734,602
392971,856,1725,603
393000,851,1675,629
393040,932,1597,617
393080,921,1666,625
393120,977,1699,645
393160,970,1698,646
393200,963,1666,605
393264,902,1657,581
393271,915,1626,582
393320,906,1614,554
393360,907,1615,543
393400,908,1566,544
393440,913,1683,566
393471,925,1645,549
393513,952,1612,624
393573,946,1598,641
393621,930,1654,613
393696,931,1667,590
393706,982,1642,579
393713,965,1634,598
393751,938,1616,613
393791,939,1645,604
393831,949,1571,620
393871,953,1656,610
393911,916,1617,603
393951,911,1673,605
393991,919,1675,582
394061,910,1625,595
394071,911,1656,617
394111,886,1552,633
394151,907,1832,554
394191,969,1673,503
394252,1040,1614,347
394306,1029,1808,222
394315,1075,2054,37
394365,1165,1667,-108
394391,1194,1610,-166
394462,1164,1745,-329
394471,1182,1712,-346
394511,1219,1708,-410
394551,1251,1563,-424
394591,1307,1607,-521
394631,1310,1689,-553
394671,1298,1598,-543
394711,1319,1468,-573
394751,1347,1433,-595
394792,1322,1549,-624
394864,1356,1569,-707
394904,1336,1535,-731
394914,1325,1515,-732
394973,1298,1554,-720
395016,1309,1516,-767
395032,1262,1543,-798
395072,1254,1625,-790
395112,1287,1592,-806
395172,1290,1594,-752
395193,1273,1575,-761
395232,1224,1684,-799
395273,1236,1739,-791
395333,1247,1642,-662
395352,1225,1614,-649
395392,1225,1618,-618
395432,1211,1690,-632
395472,1234,1660,-604
395512,1213,1669,-535
395552,1216,1637,-509
395592,1190,1717,-533
395663,1195,1621,-403
395672,1217,1612,-396
395713,1204,1682,-374
395753,1216,1704,-392
395835,1208,1666,-350
395845,1201,1641,-337
395899,1196,1703,-358
395955,1214,1626,-333
395966,1224,1625,-374
396005,1209,1696,-404
396033,1210,1693,-406
396104,1206,1717,-454
396113,1214,1700,-449
396153,1226,1691,-461
396193,1215,1665,-495
396233,1222,1670,-463
396273,1218,1697,-480
396313,1206,1692,-474
396353,1219,1640,-487
396393,1229,1723,-488
396455,1204,1660,-504
396474,1196,1643,-506
396556,1205,1682,-539
396565,1208,1688,-555
396615,1206,1692,-650
396666,1223,1732,-631
396673,1223,1702,-636
396713,1220,1650,-620
396753,1227,1663,-635
396793,1207,1656,-624
396856,1206,1647,-633
396873,1205,1668,-633
396913,1175,1673,-642
396953,1180,1621,-631
396993,1189,1695,-639
397033,1169,1638,-658
397074,1175,1683,-644
397113,1196,1691,-649
397153,1186,1701,-627
397205,1182,1628,-619
397297,1176,1720,-688
397305,1165,1736,-677
397349,1159,1706,-644
397354,1170,1697,-647
397416,1162,1692,-643
397433,1129,1680,-643
397473,1129,1715,-622
397514,1140,1696,-619
397554,1117,1735,-629
397594,1128,1737,-632
397659,1108,1661,-619
397674,1117,1741,-601
397714,1113,1669,-542
397754,1091,1722,-559
397794,1147,1962,-638
397834,1108,1594,-587
397874,1139,1654,-617
397914,1133,1838,-733
398006,1105,1684,-632
398048,1101,1688,-717
398084,1100,1696,-695
398095,1129,1705,-687
398148,1144,1706,-685
398155,1144,1730,-706
398195,1136,1768,-701
398235,1147,1656,-706
398275,1129,1689,-763
398314,1151,1641,-713
398355,1131,1689,-682
398395,1147,1706,-712
398464,1127,1625,-724
398474,1166,1610,-716
398514,1169,1693,-779
398564,1169,1706,-794
398594,1126,1672,-758
398635,1120,1660,-755
398698,1120,1643,-818
398779,1118,1607,-802
398789,1129,1646,-840
398795,1141,1634,-839
398835,1126,1601,-872
398875,1127,1626,-877
398936,1119,1616,-869
398955,1125,1656,-876
398995,1154,1599,-910
399035,1124,1601,-922
399075,1122,1667,-902
399115,1158,1634,-933
399155,1146,1651,-924
399195,1158,1618,-935
399258,1101,1640,-935
399275,1129,1616,-944
399347,1148,1608,-978
399395,1147,1581,-954
399405,1141,1581,-946
399436,1126,1606,-930
399477,1125,1649,-980
399545,1142,1626,-990
399556,1152,1586,-966
399596,1115,1763,-977
399635,1123,1469,-942
399696,1129,1612,-1009
399789,1155,1676,-996
399797,1138,1664,-1002
399806,1164,1626,-979
399835,1124,1614,-922
399876,1095,1570,-918
399915,1132,1619,-941
399955,1142,1630,-1017
399995,1106,1592,-956
400059,1123,1666,-996
400075,1147,1642,-1000
400116,1115,1629,-934
400156,1113,1603,-988
400196,1116,1671,-981
400236,1138,1603,-868
400276,1100,1502,-837
400339,1128,1681,-1036
400377,1090,1683,-965
400396,1094,1672,-987
400439,1123,1628,-938
400487,1091,1615,-937
400517,1113,1593,-920
400557,1123,1612,-956
400596,1070,1619,-930
400637,1099,1584,-973
400677,1126,1622,-955
400717,1112,1588,-930
400756,1121,1644,-965
400797,1112,1607,-956
400862,1105,1622,-943
400877,1101,1661,-959
400917,1098,1641,-974
400989,1121,1665,-963
401028,1096,1625,-979
401036,1091,1608,-959
401090,1089,1617,-954
401117,1080,1609,-935
401157,1079,1692,-993
401197,1080,1592,-925
401267,1086,1723,-949
401277,1097,1723,-988
401317,1097,1604,-931
401357,1085,1647,-938
401397,1086,1657,-949
401437,1084,1625,-948
401477,1095,1643,-957
401517,1100,1643,-962
401557,1091,1670,-954
401628,1082,1640,-963
401638,1082,1638,-977
401690,1045,1559,-974
401750,1069,1645,-942
401793,1065,1611,-946
401801,1101,1686,-946
401847,1073,1666,-907
401877,1053,1678,-932
401917,1083,1700,-1020
401957,1078,1622,-1001
401997,1067,1641,-917
402069,1019,1816,-807
402077,1044,1767,-797
402118,1008,1726,-704
402157,987,1873,-541
402197,926,1742,-456
402237,972,1647,-499
402277,948,1609,-283
402317,934,2022,-355
402401,1000,1832,-473
402407,1017,1851,-456
402498,896,1843,-308
402549,880,1851,-304
402559,863,1901,-283
402568,846,1986,-293
402597,819,1878,-212
402638,799,1816,-212
402678,852,1757,-160
402718,850,1898,-154
402758,927,1795,-258
402799,884,1707,-271
402869,581,1837,710
402888,995,1483,-551
402919,873,2227,-931
402958,918,1978,-584
402999,976,1822,-424
403039,943,1830,-276
403110,895,1595,-192
403121,849,1667,-151
403162,930,1897,-97
403210,997,1838,-125
403233,959,1738,-86
403308,971,1951,-88
403313,978,1923,-94
403358,882,1873,10
403399,911,1906,157
403438,1009,1620,42
403479,977,1724,110
403519,954,1950,90
403558,902,1783,128
403599,977,1656,200
403662,931,1853,338
403671,990,1709,347
403719,896,1754,468
403758,940,1469,430
403799,916,1688,542
403864,875,1582,494
403878,895,1418,494
403918,920,2008,525
403958,927,1759,680
404019,840,1597,756
404038,842,1572,750
404079,944,1687,749
404120,1034,1373,627
404165,968,1772,792
404214,941,1338,747
404279,919,1848,743
404289,939,1829,712
404319,990,1456,639
404359,858,1789,874
404399,976,1286,937
404439,1014,1484,788
404514,917,1645,863
404519,900,1665,830
404560,889,1515,948
404599,996,1198,804
404639,944,1612,890
404679,887,1503,998
404719,943,1510,961
404759,965,1514,901
404810,854,1383,1091
404831,925,1310,1046
404900,900,1438,899
404912,913,1308,939
404953,898,1586,1036
405020,935,1460,1001
405039,933,1469,976
405080,978,1356,1022
405119,889,1339,964
405159,720,1149,1154
405199,755,1401,1106
405271,991,1453,875
405279,1057,1564,874
405319,913,1806,1010
405359,869,1647,1083
405399,880,1286,1009
405440,889,1360,972
405470,844,1466,953
405593,918,1410,751
405603,926,1419,770
405611,894,1466,778
405691,923,1499,749
405702,939,1681,740
405751,917,1580,699
405761,899,1534,746
405791,902,1604,810
405831,889,1729,755
405871,871,1678,804
405911,903,1585,751
405951,894,1625,706
406000,862,1617,668
406054,824,1676,660
406071,809,1651,686
406121,841,1617,689
406151,852,1555,655
406191,844,1573,678
406231,852,1568,661
406305,864,1619,630
406382,911,1610,596
406392,907,1672,635
406402,909,1713,624
406431,928,1713,628
406481,883,1753,577
406533,888,1456,697
406550,893,1369,648
406591,904,1714,588
406640,911,1599,563
406671,911,1679,574
406711,936,1693,572
406752,920,1912,590
406792,904,1588,793
406864,832,1506,906
406871,836,1505,938
406951,750,1529,1063
406995,780,1284,1069
407044,848,1498,973
407053,855,1468,872
407071,892,1410,820
407112,852,1661,775
407151,865,1722,762
407191,894,1491,807
407262,911,1560,852
407272,899,1589,839
407311,896,1455,885
