elapsed_ms,ax,ay,az
146344,-466,1292,1192
146383,-480,1288,1190
146424,-485,1284,1200
146464,-476,1271,1207
146504,-474,1244,1211
146544,-461,1291,1220
146584,-442,1277,1213
146624,-447,1257,1193
146664,-446,1261,1204
146704,-458,1270,1228
146744,-429,1271,1218
146783,-438,1296,1220
146823,-449,1281,1214
146863,-406,1290,1188
146907,-427,1288,1200
146948,-421,1293,1220
146983,-409,1277,1230
147023,-420,1292,1229
147063,-424,1296,1258
147103,-435,1294,1222
147143,-424,1292,1214
147183,-425,1304,1237
147224,-435,1286,1230
147263,-433,1311,1235
147303,-429,1284,1232
147344,-399,1264,1214
147383,-404,1299,1218
147423,-416,1302,1220
147487,-412,1286,1201
147526,-415,1268,1197
147583,-440,1320,1228
147594,-429,1358,1208
147623,-431,1273,1218
147663,-421,1309,1218
147703,-427,1263,1241
147743,-442,1298,1223
147783,-419,1277,1213
147823,-422,1280,1209
147863,-426,1291,1209
147903,-416,1288,1194
147943,-400,1276,1212
147983,-422,1316,1214
148023,-403,1256,1225
148063,-413,1314,1234
148125,-411,1278,1221
148167,-423,1308,1229
148207,-414,1277,1223
148234,-409,1303,1204
148263,-407,1288,1210
148304,-406,1297,1202
148354,-407,1294,1223
148383,-419,1290,1231
148423,-413,1305,1201
148463,-390,1283,1237
148503,-428,1288,1213
148543,-438,1301,1224
148583,-414,1286,1203
148623,-425,1276,1214
148664,-422,1320,1184
148703,-410,1291,1217
148743,-407,1292,1225
148783,-417,1284,1217
148823,-412,1292,1205
148863,-422,1268,1208
148903,-430,1309,1203
148943,-427,1292,1208
148987,-421,1302,1223
149029,-417,1280,1216
149089,-433,1311,1214
149104,-428,1319,1201
149143,-424,1281,1207
149194,-426,1290,1203
149224,-446,1297,1213
149263,-420,1303,1203
149304,-436,1299,1198
149343,-441,1283,1198
149383,-419,1247,1213
149424,-427,1242,1201
149463,-459,1327,1217
149503,-436,1278,1208
149544,-442,1330,1217
149587,-438,1304,1224
149638,-455,1278,1227
149686,-444,1303,1212
149704,-460,1291,1203
149748,-429,1286,1188
149783,-406,1312,1144
149824,-426,1331,1162
149864,-441,1345,1183
149903,-478,1339,1192
149944,-513,1346,1192
149994,-498,1294,1187
150023,-475,1272,1199
150063,-488,1275,1195
150105,-494,1292,1211
150143,-494,1295,1192
150184,-479,1309,1218
150224,-462,1293,1205
150296,-433,1293,1187
150306,-431,1306,1191
150356,-424,1297,1197
150449,-444,1292,1206
150454,-447,1274,1217
150465,-441,1263,1225
150508,-435,1274,1215
150559,-447,1263,1215
150584,-450,1278,1219
150623,-427,1269,1214
150664,-426,1299,1227
150704,-426,1274,1239
150744,-431,1307,1208
150795,-455,1271,1213
150824,-410,1292,1223
150864,-433,1266,1204
150904,-428,1315,1191
150943,-433,1296,1206
150984,-434,1282,1207
151023,-451,1288,1214
151106,-466,1274,1212
151115,-454,1258,1234
151167,-457,1280,1231
151243,-453,1276,1214
151256,-440,1264,1223
151264,-452,1254,1211
151305,-439,1278,1199
151344,-421,1268,1206
151385,-422,1287,1201
151424,-450,1314,1199
151464,-444,1282,1225
151505,-446,1278,1199
151545,-425,1280,1191
151595,-452,1326,1232
151624,-480,1325,1250
151693,-440,1229,1235
151704,-422,1248,1226
151743,-445,1269,1197
151784,-443,1312,1197
151836,-449,1307,1182
151898,-428,1313,1186
151906,-417,1300,1198
151949,-461,1297,1200
151998,-493,1284,1234
152024,-487,1268,1203
152065,-468,1245,1190
152104,-483,1266,1206
152145,-451,1282,1206
152185,-442,1353,1212
152224,-487,1273,1213
152265,-428,1297,1209
152305,-433,1272,1196
152345,-393,1298,1173
152395,-458,1354,1188
152425,-451,1342,1202
152507,-444,1286,1196
152515,-454,1292,1192
152557,-465,1282,1187
152607,-449,1308,1188
152624,-455,1295,1171
152664,-448,1300,1186
152704,-462,1329,1191
152744,-468,1328,1186
152787,-469,1294,1184
152824,-481,1295,1200
152864,-489,1286,1203
152904,-499,1268,1180
152944,-499,1261,1196
152984,-506,1298,1189
153024,-512,1292,1202
153064,-505,1263,1187
153104,-499,1259,1194
153167,-498,1306,1184
153214,-493,1275,1203
153260,-466,1284,1197
153268,-478,1290,1206
153327,-489,1300,1187
153344,-490,1267,1195
153384,-476,1278,1201
153424,-492,1280,1169
153464,-484,1289,1186
153504,-485,1263,1185
153544,-490,1301,1181
153587,-465,1311,1198
153625,-489,1255,1207
153664,-498,1286,1187
153704,-473,1284,1183
153744,-477,1292,1191
153784,-482,1291,1189
153824,-486,1277,1189
153886,-480,1319,1217
153977,-499,1301,1199
153989,-488,1305,1198
154026,-486,1268,1208
154067,-499,1303,1205
154109,-502,1284,1198
154115,-490,1288,1217
154167,-480,1269,1202
154185,-480,1261,1178
154224,-512,1276,1193
154264,-486,1269,1211
154304,-482,1286,1214
154344,-473,1272,1225
154396,-478,1285,1204
154425,-485,1263,1224
154464,-495,1280,1222
154504,-481,1261,1209
154544,-470,1261,1206
154584,-489,1291,1208
154624,-506,1283,1224
154664,-491,1256,1193
154703,-492,1258,1209
154744,-495,1262,1212
154837,-495,1265,1209
154845,-483,1259,1215
154864,-478,1267,1215
154904,-480,1273,1206
154944,-500,1269,1197
154984,-485,1262,1194
155024,-487,1271,1208
155065,-499,1268,1209
155104,-485,1276,1199
155144,-496,1260,1200
155184,-504,1263,1204
155224,-519,1257,1218
155264,-538,1240,1231
155304,-518,1214,1229
155344,-524,1176,1267
155395,-482,1178,1257
155439,-492,1137,1262
155487,-456,1176,1306
155504,-449,1204,1301
155545,-460,1191,1275
155596,-378,1184,1249
155624,-367,1220,1242
155665,-372,1222,1285
155705,-305,1231,1287
155744,-224,1305,1261
155784,-199,1322,1266
155824,-229,1458,1242
155864,-264,1312,1254
155904,-229,1348,1200
155945,-193,1371,1204
155988,-301,1512,1244
156025,-386,1481,1249
156064,-372,1380,1217
156126,-328,1314,1191
156144,-354,1284,1207
156184,-351,1292,1214
156225,-348,1324,1289
156264,-401,1338,1287
156314,-436,1306,1307
156376,-493,1278,1350
156385,-487,1254,1361
156436,-504,1255,1385
156464,-469,1158,1416
156504,-472,1278,1518
156545,-516,1179,1548
156584,-501,1052,1538
156625,-441,838,1467
156666,-454,672,1460
156705,-425,487,1489
156745,-411,472,1620
156796,-359,500,1708
156826,-300,439,1678
156865,-178,370,1615
156928,-73,300,1435
156979,8,348,1329
156986,-10,421,1348
157038,4,644,1614
157066,-51,1004,1646
157105,-124,1245,1758
157145,20,1567,1731
157195,-160,1523,1607
157226,-71,1133,1518
157265,248,1316,1373
157305,102,1512,1372
157345,-95,1656,1385
157386,-252,1178,1062
157425,-255,1248,1277
157466,-19,1082,1397
157505,-49,1217,1331
157546,47,1324,1429
157596,175,1071,1375
157647,181,1402,1215
157700,-6,1165,1262
157735,-6,1162,1276
157747,79,993,1433
157787,-19,1036,1548
157838,134,657,1773
157865,354,720,1886
157905,465,1248,2003
157945,335,1129,1871
157985,277,953,1509
158026,244,1015,1294
158098,149,1055,1188
158105,125,1088,1222
158145,-173,1073,1326
158186,-378,1166,1340
158225,-456,992,1383
158265,-554,974,1405
158306,-526,878,1398
158387,-212,1201,1410
158431,-70,1188,1332
158436,-2,1167,1273
158477,658,1733,1580
158538,648,1947,1435
158547,634,1867,1389
158586,390,1829,1347
158625,268,1675,1084
158665,440,1077,965
158706,399,661,872
158745,366,799,883
158786,244,1144,1142
158825,166,1156,1441
158890,98,1191,1678
158908,159,1212,1744
158946,205,1109,1636
159020,-99,1369,1444
159026,-98,1366,1474
159076,-586,1899,1459
159126,-668,2135,1676
159145,-624,2021,1650
159185,-478,847,1439
159225,-225,476,1088
159295,109,776,778
159307,118,632,750
159345,126,472,853
159385,-46,796,772
159425,76,746,821
159466,208,1358,1395
159505,-349,1665,1648
159546,-224,935,1770
159585,-147,782,1709
159625,-474,1476,1486
159669,-721,1461,1321
159726,-1594,2205,1222
159787,-1248,1108,1032
159845,-959,1237,914
159856,-900,1089,852
159865,-871,1041,861
159905,-781,1150,969
159945,-566,1067,795
159986,-484,941,847
160026,-594,1135,860
160098,-1030,928,1000
160106,-1028,953,1040
160145,-889,926,1186
160185,-1011,931,1283
160225,-785,704,1265
160265,-1510,1164,1799
160305,-1353,218,1621
160380,-1174,640,1565
160389,-1178,570,1497
160426,-1022,254,1262
160465,-1010,666,1161
160505,-810,637,1026
160555,-552,806,1013
160586,-523,1193,1310
160626,-284,1266,1418
160719,141,935,1544
160731,246,1193,1359
160747,259,1228,1297
160797,313,1358,1421
160825,48,1696,1498
160865,254,1155,1547
160905,438,969,1624
160945,884,431,1885
160989,388,462,2468
161025,897,-123,2578
161065,1836,-302,2091
161105,805,610,1322
161145,1462,520,1174
161185,1170,157,1159
161225,995,655,1224
161297,1482,168,1527
161307,1543,339,1491
161349,1584,496,1388
161418,1513,474,1192
161427,1415,599,1100
161518,357,639,961
161528,351,631,932
161567,754,687,1375
161585,767,714,1316
161625,1671,1154,1422
161666,958,476,1153
161718,3173,1965,2365
161746,1881,1119,1384
161786,1291,863,583
161826,1610,1090,773
161866,1768,670,699
161906,1416,1060,854
161946,1626,738,899
161986,1741,945,893
162026,1092,1163,1025
162089,1930,539,1243
162140,1525,1151,917
162148,1544,884,850
162196,1933,440,681
162240,2194,452,752
162286,2282,-130,699
162306,2336,137,704
162346,2194,286,710
162386,1811,2,718
162426,1555,-346,471
162490,2595,-103,567
162516,1820,319,280
162546,1622,319,536
162586,1983,-211,459
162626,2106,310,363
162666,2190,373,210
162706,2183,68,125
162746,2170,-89,-112
162786,1971,-68,-28
162829,2191,-427,31
162900,2160,-242,-91
162910,2195,-291,-58
162972,2353,-514,56
162986,2311,-437,89
163026,2017,-453,626
163066,1993,-536,561
163106,1963,-406,556
163146,2155,-295,548
163186,2056,-478,536
163226,1862,-240,597
163291,2006,-535,569
163307,2029,-584,570
163346,1949,-508,491
163387,1896,-404,589
163426,1879,-271,513
163466,1972,-200,736
163519,1841,-1037,508
163556,1956,-789,408
163620,2016,-83,570
163636,1955,-162,726
163698,1611,-811,1074
163702,1575,-767,1110
163746,1023,67,1366
163786,1501,-896,1195
163826,2055,-1585,1059
163866,1923,-115,815
163906,1762,-468,860
163946,1589,-796,951
163986,1420,-1032,1167
164026,1490,-1119,1348
164088,1314,-603,1349
164108,1306,-377,1315
164171,1362,-443,1285
164219,1479,-633,1266
164226,1497,-690,1265
164269,1449,-542,1184
164306,1683,-283,1228
164346,1585,-584,1161
164386,1571,-458,1231
164426,1557,-433,1254
164500,1396,70,1046
164507,1417,34,1068
164546,1534,-1196,1057
164586,1644,-1324,1147
164627,1623,-809,1078
164666,1535,-692,976
164707,1524,-633,1012
164746,1592,-693,1143
164819,1309,-579,1273
164822,1303,-537,1298
164867,1367,-165,1314
164907,1631,-419,1231
164969,1415,-578,1198
164986,1424,-341,1267
165026,1308,228,1398
165067,1197,-197,1577
165128,884,-609,1962
165177,1026,-16,1673
165190,1060,79,1613
165249,1301,-276,1454
165299,1276,94,1440
165306,1295,91,1449
165347,1177,-55,1549
165386,1098,-65,1569
165430,1070,-138,1666
165466,1119,-173,1637
165506,1139,-178,1543
165547,1216,-214,1522
165587,1212,-292,1496
165627,1175,-263,1523
165691,1148,-219,1559
165708,1153,-219,1571
165746,1174,-234,1557
165787,1175,-211,1533
165839,1169,-289,1583
165890,1180,-303,1576
165979,1286,-181,1457
165984,1267,-202,1461
165988,1261,-200,1468
166027,1221,-154,1527
166067,1189,-224,1523
166139,1242,-413,1503
166148,1247,-396,1497
166187,1221,-259,1476
166227,1214,-220,1520
166267,1192,-228,1525
166307,1208,-273,1517
166347,1194,-282,1517
166387,1205,-251,1475
166427,1254,-300,1500
166492,1227,-238,1489
166542,1219,-268,1510
166548,1217,-273,1483
166603,1215,-283,1484
166646,1224,-292,1506
166668,1221,-263,1528
166708,1218,-247,1506
166748,1218,-284,1517
166788,1219,-270,1513
166828,1211,-259,1509
166899,1242,-290,1502
166907,1232,-299,1510
166948,1210,-252,1525
166988,1214,-222,1479
167028,1219,-234,1512
167068,1228,-281,1512
167108,1226,-324,1523
167178,1218,-258,1481
167182,1225,-256,1499
167248,1229,-286,1501
167300,1219,-245,1493
167350,1218,-291,1531
167358,1205,-283,1516
167387,1204,-257,1525
167428,1236,-257,1474
167468,1239,-306,1516
167508,1217,-284,1484
167548,1219,-266,1485
167588,1221,-282,1497
167628,1212,-262,1507
167699,1221,-247,1497
167709,1224,-245,1498
167747,1218,-279,1522
167787,1196,-259,1514
167827,1230,-296,1494
167899,1191,-234,1526
167910,1196,-235,1510
167962,1212,-305,1525
168019,1226,-251,1518
168028,1203,-256,1525
168067,1207,-233,1510
168119,1205,-286,1504
168147,1214,-254,1512
168187,1193,-268,1527
168227,1213,-258,1503
168267,1201,-288,1506
168307,1203,-265,1514
168347,1222,-240,1495
168387,1209,-258,1512
168427,1225,-292,1501
168498,1182,-209,1527
168509,1187,-200,1522
168570,1208,-294,1514
168587,1209,-294,1514
168640,1209,-257,1521
168699,1208,-264,1496
168707,1205,-268,1501
168747,1223,-247,1528
168787,1198,-242,1494
168827,1196,-224,1517
168900,1210,-305,1524
168910,1207,-299,1535
168948,1206,-292,1529
168988,1216,-254,1513
169027,1210,-237,1504
169068,1209,-267,1506
169108,1206,-270,1516
169148,1212,-249,1517
169187,1209,-254,1528
169253,1196,-243,1514
169305,1201,-251,1506
169342,1207,-257,1502
169350,1209,-263,1502
169387,1205,-252,1537
169427,1193,-251,1514
169508,1198,-252,1504
169518,1200,-265,1515
169547,1230,-278,1518
169587,1197,-247,1548
169661,1203,-237,1516
169665,1201,-253,1501
169731,1189,-279,1506
169780,1195,-238,1540
169781,1190,-238,1531
169872,1214,-271,1534
169889,1218,-269,1492
169907,1207,-262,1494
169948,1206,-281,1501
169987,1192,-256,1536
170028,1193,-247,1515
170068,1190,-254,1524
170138,1194,-255,1535
170149,1207,-254,1525
170188,1199,-261,1522
170227,1209,-251,1526
170267,1194,-244,1516
170308,1211,-276,1522
170347,1200,-256,1518
170387,1203,-247,1522
170429,1203,-265,1510
170513,1191,-258,1523
170519,1191,-234,1540
170575,1195,-258,1508
170588,1227,-265,1509
170627,1189,-268,1519
170667,1189,-221,1532
170707,1197,-243,1522
170747,1203,-290,1526
170788,1189,-267,1520
170828,1202,-230,1533
170898,1205,-226,1507
170908,1201,-238,1511
170948,1217,-299,1520
170988,1198,-258,1516
171028,1183,-247,1524
171068,1194,-240,1508
171122,1195,-265,1513
171169,1212,-253,1525
171220,1212,-238,1521
171229,1212,-249,1520
171268,1204,-261,1531
171311,1194,-254,1523
171349,1212,-266,1524
171389,1191,-258,1510
171429,1205,-253,1526
171469,1222,-259,1531
171508,1195,-258,1507
171548,1191,-256,1530
171589,1207,-254,1509
171629,1207,-280,1486
171693,1207,-242,1544
171709,1193,-224,1535
171771,1207,-273,1517
171820,1213,-284,1523
171860,1200,-267,1509
171869,1209,-242,1525
171908,1202,-240,1516
171948,1213,-255,1513
171988,1218,-256,1524
172029,1217,-268,1505
172100,1217,-248,1515
172107,1219,-235,1497
172148,1205,-278,1541
172188,1219,-246,1507
172228,1191,-241,1540
172269,1206,-233,1513
172309,1198,-284,1501
172349,1198,-259,1528
172425,1204,-245,1511
172429,1217,-245,1501
172481,1207,-252,1507
172525,1208,-253,1518
172539,1200,-251,1496
172586,1191,-248,1524
172628,1213,-261,1523
172668,1190,-255,1519
172709,1204,-246,1516
172748,1210,-247,1497
172788,1196,-261,1504
172828,1205,-255,1520
172901,1203,-260,1540
172919,1193,-265,1514
172948,1215,-264,1516
172988,1205,-249,1516
173028,1205,-257,1529
173068,1199,-255,1530
173109,1198,-262,1522
173160,1207,-249,1521
173209,1200,-251,1533
173309,1205,-267,1539
173320,1203,-258,1532
173358,1196,-252,1530
173397,1214,-279,1515
173404,1210,-268,1512
173428,1193,-243,1515
173468,1180,-223,1543
173508,1185,-232,1541
173549,1205,-304,1518
173588,1179,-245,1510
173628,1196,-246,1523
173699,1196,-231,1517
173710,1208,-254,1508
173739,1204,-288,1512
173788,1192,-239,1508
173849,1187,-258,1515
173868,1196,-246,1529
173899,1193,-263,1530
173981,1203,-243,1532
173990,1200,-255,1531
174072,1202,-264,1552
174073,1199,-254,1565
174108,1181,-257,1555
174148,1151,-223,1599
174221,1170,-314,1516
174231,1175,-287,1476
174268,1319,-324,1387
174308,1219,-508,1159
174348,1365,-301,1436
174389,1168,-524,1407
174429,955,-271,1601
174501,1361,-54,1435
174511,1409,-103,1447
174548,1391,-447,1274
174631,1489,-624,1365
174673,1363,-688,1310
174721,1436,-406,1342
174726,1474,-419,1374
174749,1413,-503,1350
174789,1198,-187,1311
174829,1419,-271,1373
174900,1326,-295,1379
174909,1402,-224,1418
174949,1389,-450,1386
174989,1349,-263,1360
175029,1394,-245,1362
175069,1436,-304,1359
175108,1462,-582,1412
175148,1332,-108,1288
175189,1400,-427,1341
175229,1449,-325,1327
175281,1586,-512,1360
175333,1432,-123,1313
175339,1494,-214,1293
175400,1488,-382,1311
175460,1482,-468,1286
175479,1434,-256,1292
175508,1441,-348,1289
175548,1405,-207,1295
175588,1603,-806,1213
175628,1381,-4,1081
175700,1521,-783,1229
175703,1523,-781,1221
175750,1550,-491,1200
175790,1572,-295,1148
175830,1578,-457,1187
175860,1601,-522,1185
175900,1570,-444,1183
175950,1582,-435,1161
176011,1614,-420,1134
176021,1612,-411,1145
176074,1642,-387,1099
176130,1609,-317,1130
176141,1609,-288,1129
176202,1618,-463,1117
176230,1663,-608,1017
176260,1716,-542,986
176300,1764,-645,928
176340,1723,-438,919
176390,1599,-586,1296
176430,1472,160,1245
176492,1592,-796,1181
176502,1615,-832,1159
176550,1635,-634,1096
176590,1641,-470,921
176630,1631,-470,1038
176660,1663,-458,1076
176700,1652,-601,1047
176761,1652,-544,1046
176810,1648,-476,1068
176861,1647,-497,1084
176872,1645,-503,1088
176923,1637,-438,1097
176983,1605,-474,1124
176990,1619,-481,1131
177039,1539,-734,1327
177069,1573,-399,1155
177109,1619,-163,1065
177149,1678,-537,1073
177189,1642,-762,1035
177229,1666,-567,1075
177300,1606,-521,1123
177310,1617,-533,1129
177353,1596,-481,1162
177389,1559,-417,1190
177429,1565,-412,1187
177469,1567,-439,1186
177509,1571,-447,1164
177582,1564,-468,1168
177633,1570,-480,1167
177643,1575,-475,1170
177726,1499,-460,1097
177774,1654,-563,1070
177780,1583,-585,1078
177781,1571,-580,1092
177829,1482,-578,1217
177869,1552,-339,1196
177909,1643,-245,1291
177949,1364,-309,1312
177989,1602,-258,1136
178029,1533,-749,1214
178100,1248,-731,1209
178110,1344,-590,1195
178140,1564,-101,1243
178181,1329,-398,1315
178241,1318,-403,1308
178260,1288,-47,1173
178300,1277,-261,1477
178341,1580,-338,1461
178393,1398,-515,1294
178440,1379,-394,1323
178484,1306,-941,1117
178509,1340,-675,1178
178549,1542,-287,1609
178612,1259,-485,1419
178621,1189,-636,1178
178669,1172,-478,1453
178709,1369,-465,1254
178749,1460,-663,1243
178789,1441,-535,1220
178829,1544,-590,1228
178893,768,2074,422
178900,647,1079,1132
178949,1261,-288,1430
179030,1500,-309,1280
179072,1405,-566,1304
179080,1461,-381,1282
179131,1457,-444,1361
179149,1353,-473,1372
179189,1524,-420,1495
179229,1356,-567,1435
179300,1373,-410,1322
179309,1352,-376,1318
179349,1410,-514,1377
179389,1520,-388,1375
179429,1367,-411,1332
179469,1397,-525,1326
179509,1411,-544,1340
179549,1416,-549,1348
179589,1374,-693,1371
179629,1233,-461,1319
179707,1466,-484,1306
179749,1473,-440,1317
179764,1420,-290,1314
179814,1372,-125,1323
179821,1398,-119,1341
179860,1373,-211,1375
179909,1419,-89,1378
179949,1436,-164,1373
179989,1418,-96,1351
180029,1422,-384,1393
180100,1426,-237,1385
180110,1384,-120,1347
180149,1473,-129,1388
180180,1450,-395,1369
180229,1470,-415,1342
180260,1461,-408,1296
180309,1470,-362,1303
180373,1466,-342,1306
180413,1468,-341,1301
180422,1459,-323,1329
180483,1467,-282,1325
180541,1453,-307,1303
180551,1455,-306,1305
180580,1466,-314,1316
180620,1444,-340,1310
180660,1446,-347,1319
180700,1444,-347,1341
180740,1416,-359,1358
180780,1413,-390,1392
180820,1408,-286,1387
180885,1464,-229,1318
180900,1481,-215,1295
180940,1505,-214,1244
180981,1552,-211,1214
181020,1572,-265,1185
181083,1575,-279,1202
181132,1503,-352,1262
181173,1486,-374,1315
181213,1469,-399,1301
181223,1469,-363,1309
181281,1480,-306,1317
181324,1460,-318,1297
181340,1485,-249,1287
181381,1490,-293,1296
181420,1477,-382,1258
181460,1482,-318,1280
181501,1498,-287,1276
181540,1500,-292,1256
181580,1528,-395,1249
181620,1503,-327,1281
181690,1488,-382,1283
181701,1497,-385,1304
181740,1484,-326,1312
181822,1492,-336,1276
181863,1465,-309,1331
181868,1462,-295,1347
181913,1449,-314,1279
181941,1466,-325,1298
181980,1471,-266,1294
182021,1505,-499,1248
182092,1496,-353,1240
182100,1496,-305,1234
182141,1513,-272,1209
182181,1547,-350,1201
182221,1540,-500,1208
182261,1528,-446,1199
182301,1478,-440,1301
182341,1475,-463,1267
182381,1442,-407,1326
182462,1433,-489,1307
182510,1442,-459,1293
182520,1445,-456,1300
182540,1479,-470,1276
182580,1472,-453,1271
182651,1480,-421,1257
182660,1491,-422,1274
182701,1470,-393,1255
182741,1463,-426,1262
182814,1483,-430,1271
182854,1492,-457,1260
182865,1460,-452,1264
182901,1467,-430,1276
182941,1467,-433,1278
183001,1460,-434,1297
183021,1468,-460,1292
183061,1441,-473,1293
183101,1436,-440,1294
183141,1442,-440,1297
183181,1452,-428,1307
183221,1446,-433,1271
183284,1476,-443,1255
183300,1477,-485,1252
183341,1486,-453,1249
183412,1452,-393,1312
183474,1472,-456,1264
183480,1462,-448,1290
183524,1444,-408,1303
183540,1451,-433,1310
183580,1447,-466,1318
183620,1472,-394,1288
183686,1354,-499,1182
183700,1398,-460,1218
183740,1472,-472,1298
183780,1446,-390,1224
183820,1509,-491,1223
183860,1458,-539,1232
183900,1451,-487,1275
183940,1357,-673,1365
183980,1264,-284,1423
184020,1244,-245,1364
184083,1326,-697,1397
184173,1269,-772,1341
184223,1333,-1096,1383
184233,1318,-1030,1302
184273,1385,-284,1101
184276,1385,-285,1107
184300,1436,-634,1220
184340,1335,-1391,1329
184380,1410,-835,1136
184420,1490,-1065,1102
184491,1624,-857,891
184500,1647,-879,850
184540,1673,-920,786
184580,1812,-818,624
184620,1904,-788,523
184660,1938,-670,455
184700,1928,-647,453
184740,1930,-537,475
184780,1944,-678,523
184833,1914,-624,554
184882,1880,-595,592
184924,1873,-689,637
184984,1869,-721,688
184991,1849,-724,718
185040,1869,-622,662
185060,1886,-682,645
185101,1880,-707,658
185141,1888,-671,596
185181,1895,-646,609
185221,1881,-643,615
185292,1910,-663,616
185301,1894,-675,593
185341,1909,-578,607
185381,1917,-591,573
185421,1911,-672,579
185461,1882,-676,622
185501,1865,-661,681
185615,1838,-690,738
185620,1830,-696,728
185626,1814,-704,729
185684,1796,-705,772
185764,1808,-659,797
185773,1805,-686,809
185780,1795,-715,806
185821,1769,-672,805
185861,1780,-625,810
185901,1782,-713,831
185941,1788,-633,810
185981,1779,-629,809
186021,1800,-652,813
186092,1788,-622,801
186101,1800,-622,807
186141,1780,-676,807
186181,1778,-633,802
186221,1777,-665,817
186261,1783,-674,814
186317,1796,-641,827
186363,1792,-653,803
186412,1787,-665,811
186421,1791,-651,805
186461,1793,-616,818
186502,1793,-658,823
186552,1803,-645,799
186582,1796,-666,827
186622,1790,-642,809
186661,1801,-651,817
186701,1791,-622,810
186742,1779,-661,825
186781,1803,-639,815
186822,1784,-625,807
186891,1789,-629,794
186901,1785,-641,798
186941,1785,-652,818
186982,1790,-612,817
187044,1796,-655,832
187062,1785,-631,821
187101,1787,-644,828
187142,1775,-644,819
187193,1780,-645,817
187243,1796,-641,803
187283,1785,-634,840
187302,1778,-627,829
187341,1780,-622,813
187384,1784,-659,818
187422,1785,-618,804
187461,1787,-658,818
187502,1779,-623,829
187542,1765,-638,843
187582,1780,-631,850
187621,1774,-624,837
187687,1786,-632,819
187701,1781,-643,808
187741,1798,-619,832
187781,1781,-634,824
187843,1782,-620,829
187895,1783,-632,833
187903,1782,-634,834
187953,1782,-637,834
187981,1789,-613,836
188022,1786,-628,835
188094,1784,-628,830
188102,1779,-636,830
188141,1779,-621,835
188181,1780,-646,835
188222,1777,-622,827
188262,1779,-622,836
188301,1773,-619,839
188341,1794,-621,831
188382,1777,-635,846
188421,1785,-640,809
188515,1782,-621,836
188525,1776,-634,831
188542,1778,-635,849
188583,1780,-609,842
188644,1778,-637,822
188694,1783,-599,837
188702,1786,-612,827
188741,1780,-639,828
188781,1783,-613,822
188821,1774,-622,850
188895,1796,-613,851
188901,1779,-634,835
188941,1773,-637,841
188982,1791,-631,847
189021,1782,-636,819
189061,1780,-626,813
189101,1782,-603,829
189141,1776,-629,818
189181,1778,-632,821
189237,1784,-634,867
189285,1781,-618,815
189334,1782,-645,831
189343,1771,-649,832
189381,1773,-615,827
189434,1787,-639,840
189461,1787,-612,832
189501,1772,-632,838
189541,1787,-629,841
189581,1774,-630,831
189622,1766,-614,840
189687,1773,-642,840
189702,1779,-627,842
189742,1781,-632,841
189782,1767,-627,851
189821,1779,-603,837
189862,1780,-640,843
189901,1777,-630,838
189982,1774,-627,833
189994,1769,-621,853
190075,1769,-632,852
190087,1764,-609,853
190132,1766,-633,882
190142,1780,-644,847
190182,1773,-638,829
190222,1781,-626,846
190262,1783,-635,837
190302,1769,-630,834
190342,1774,-614,857
190382,1766,-636,834
190422,1761,-634,840
190489,1772,-628,829
190502,1781,-619,836
190542,1775,-618,840
190582,1774,-613,836
190625,1775,-637,832
190694,1773,-622,853
190743,1779,-629,852
190752,1765,-641,852
190782,1772,-612,845
190822,1766,-618,851
190895,1771,-608,844
190904,1773,-622,846
190942,1777,-631,835
190982,1773,-628,845
191022,1777,-608,850
191062,1771,-637,845
191102,1787,-615,835
191142,1776,-637,844
191182,1768,-617,846
191222,1773,-618,849
191289,1769,-615,831
191345,1762,-629,834
191353,1774,-611,843
191393,1786,-634,839
191422,1761,-627,851
191486,1773,-616,845
191503,1775,-628,868
191543,1780,-612,869
191583,1780,-610,836
191638,1772,-623,831
191697,1782,-636,836
191707,1774,-633,861
191742,1760,-620,837
191803,1761,-634,838
191823,1787,-626,848
191863,1768,-624,845
191902,1771,-626,850
191942,1773,-612,859
191982,1769,-625,870
192022,1774,-589,855
192088,1778,-621,865
192103,1758,-618,864
192142,1764,-615,855
192182,1767,-640,864
192254,1758,-639,874
192265,1758,-632,882
192354,1756,-630,868
192364,1762,-618,880
192413,1785,-628,866
192427,1781,-620,847
192462,1771,-613,843
192514,1781,-601,827
192542,1792,-595,841
192582,1777,-623,824
192622,1774,-627,869
192662,1761,-630,883
192702,1764,-629,849
192742,1774,-628,844
192783,1796,-563,816
192822,1790,-604,799
192896,1820,-622,799
192903,1802,-637,804
193007,1793,-610,814
193015,1769,-607,833
193026,1794,-606,822
193076,1784,-593,827
193125,1764,-620,840
193173,1790,-634,823
193182,1782,-625,836
193222,1764,-608,829
193262,1792,-617,845
193318,1792,-592,821
193343,1796,-604,821
193382,1794,-623,817
193422,1793,-610,820
193462,1793,-624,835
193502,1785,-604,840
193542,1782,-628,843
193582,1789,-620,860
193622,1790,-595,850
193736,1789,-611,825
193743,1786,-610,840
193834,1808,-611,838
193842,1782,-615,830
193852,1784,-617,835
193862,1789,-609,807
193902,1776,-636,818
193942,1793,-606,844
193982,1793,-614,845
194022,1771,-613,844
194094,1768,-612,859
194105,1780,-611,828
194142,1795,-629,844
194182,1790,-598,843
194222,1797,-614,850
194262,1784,-595,825
194302,1778,-609,851
194376,1789,-616,842
194414,1784,-628,834
194423,1775,-640,844
194473,1779,-609,836
194527,1792,-615,845
194544,1776,-613,848
194582,1790,-626,835
194623,1779,-607,843
194663,1782,-626,850
194703,1772,-623,840
194743,1784,-600,833
194783,1793,-620,841
194823,1793,-620,846
194894,1786,-605,840
194904,1783,-635,840
194943,1778,-622,830
195019,1778,-614,843
195023,1799,-609,841
195068,1780,-612,849
195107,1780,-603,846
195143,1782,-642,842
195183,1773,-628,855
195223,1792,-613,845
195294,1790,-612,837
195304,1790,-609,851
195343,1798,-610,857
195383,1783,-616,840
195423,1774,-627,862
195463,1782,-640,810
195503,1779,-632,874
195543,1782,-579,848
195583,1783,-619,854
195623,1773,-626,849
195670,1779,-620,851
195715,1786,-626,827
195743,1784,-619,837
195783,1781,-616,838
195844,1780,-602,836
195863,1781,-605,834
195903,1774,-626,844
195944,1772,-615,842
196017,1783,-617,838
196025,1782,-598,842
196075,1777,-622,848
196103,1782,-610,828
196143,1787,-594,824
196215,1779,-630,841
196224,1796,-632,823
196263,1775,-602,848
196303,1791,-603,847
196343,1782,-617,848
196383,1782,-604,839
196423,1783,-621,838
196486,1772,-614,848
196505,1791,-595,825
196543,1792,-614,826
196583,1785,-610,842
196630,1776,-600,855
196685,1773,-620,834
196704,1783,-626,839
196745,1774,-616,836
196804,1773,-600,853
196823,1775,-602,840
196895,1778,-599,848
196904,1783,-620,845
196943,1776,-620,862
196983,1780,-623,846
197023,1771,-624,836
197063,1783,-614,838
197103,1787,-601,866
197143,1769,-610,829
197183,1780,-620,852
197223,1788,-626,858
197288,1775,-616,851
197305,1784,-607,859
197349,1777,-620,832
197406,1780,-611,839
197456,1785,-617,846
197495,1769,-619,864
197505,1779,-625,831
197543,1787,-619,837
197584,1775,-602,846
197623,1774,-613,847
197686,1780,-615,857
197704,1771,-624,855
197744,1774,-629,848
197783,1777,-623,855
197823,1771,-617,860
197864,1774,-605,849
197903,1771,-608,850
197944,1782,-628,841
197983,1758,-620,829
198050,1762,-606,826
198098,1775,-625,853
198101,1782,-632,840
198158,1767,-602,853
198217,1783,-621,868
198224,1763,-618,868
198263,1780,-613,845
198304,1782,-629,840
198343,1786,-605,826
198383,1780,-599,846
198423,1781,-619,871
198495,1766,-615,852
198505,1774,-614,846
198544,1777,-613,857
198584,1783,-617,853
198623,1779,-612,840
198664,1795,-624,851
198704,1771,-613,852
198766,1777,-629,846
198817,1783,-614,829
198827,1786,-590,842
198876,1770,-609,845
198927,1777,-611,850
198943,1770,-630,846
198984,1784,-619,842
199024,1777,-609,834
199064,1776,-612,842
199104,1767,-600,861
199144,1772,-621,842
199184,1782,-604,878
199224,1773,-629,849
199295,1773,-619,861
199304,1769,-617,850
199344,1782,-612,846
199384,1768,-619,862
199424,1768,-611,848
199480,1773,-620,848
199544,1790,-616,850
199554,1772,-622,851
199595,1767,-604,853
199624,1784,-615,846
199664,1781,-611,849
199726,1780,-643,853
199746,1779,-600,851
199784,1765,-617,852
199824,1783,-615,839
199865,1776,-591,848
199904,1783,-611,826
199945,1768,-620,850
199985,1771,-624,845
200025,1776,-626,835
200088,1784,-643,859
200104,1764,-618,855
200144,1761,-676,883
200184,1756,-439,845
200254,1779,-694,850
200264,1783,-656,840
200303,1774,-536,851
200344,1779,-641,868
200405,1767,-569,869
200506,1762,-591,869
200548,1773,-608,876
200556,1771,-616,869
200589,1770,-612,867
200599,1773,-601,861
200696,1763,-582,866
200706,1774,-597,845
200715,1765,-597,880
200745,1767,-595,872
200785,1770,-582,864
200825,1770,-655,861
200865,1764,-559,878
200905,1754,-612,871
200959,1753,-596,859
200984,1771,-585,869
201025,1764,-611,857
201065,1764,-593,866
201105,1778,-610,856
201144,1773,-606,862
201184,1772,-592,852
201255,1762,-605,895
201300,1769,-597,872
201306,1767,-596,857
201348,1773,-606,867
201399,1767,-610,865
201424,1765,-597,860
201464,1776,-613,853
201504,1768,-587,880
201544,1781,-601,881
201584,1769,-622,858
201624,1761,-608,866
201696,1767,-611,861
201708,1784,-614,867
201744,1774,-593,862
201784,1763,-591,894
201824,1754,-610,859
201864,1778,-616,851
201977,1792,-610,871
201987,1769,-578,855
202036,1766,-623,847
202054,1772,-601,872
202064,1766,-584,868
202127,1776,-603,852
202146,1764,-590,867
202184,1762,-624,878
202224,1774,-594,861
202264,1778,-588,855
202304,1764,-610,861
202344,1769,-592,878
202384,1763,-592,867
202424,1773,-606,862
202496,1770,-595,854
202506,1767,-604,873
202580,1774,-616,861
202615,1769,-611,862
202628,1771,-617,861
202666,1773,-592,869
202704,1772,-602,863
202744,1780,-574,872
202784,1761,-609,862
202824,1767,-622,868
202890,1770,-598,865
202906,1773,-604,877
202944,1768,-592,870
202984,1765,-593,864
203025,1764,-592,882
203064,1767,-599,869
203104,1777,-616,858
203144,1772,-605,862
203184,1748,-589,859
203227,1757,-603,875
203286,1770,-605,873
203330,1772,-598,863
203346,1768,-602,851
203397,1770,-589,863
203424,1787,-606,861
203464,1771,-604,852
203504,1758,-597,863
203544,1769,-614,865
203584,1764,-611,885
203625,1759,-594,872
203697,1758,-614,884
203707,1760,-599,851
203745,1761,-593,869
203785,1766,-613,869
203824,1773,-585,843
203865,1780,-593,876
203904,1760,-616,875
203959,1765,-603,876
204009,1767,-607,896
204025,1759,-599,882
204068,1760,-601,881
204166,1764,-594,861
204176,1765,-586,853
204186,1774,-599,875
204226,1764,-626,864
204266,1763,-595,881
204306,1754,-589,865
204346,1757,-618,872
204385,1768,-587,876
204425,1762,-597,879
204488,1772,-600,877
204505,1761,-601,868
204546,1772,-594,878
204587,1759,-608,864
204646,1778,-599,880
204666,1759,-619,875
204706,1751,-609,889
204747,1761,-602,868
204800,1762,-607,890
204858,1760,-603,880
204866,1764,-618,894
204955,1772,-619,884
204999,1776,-603,865
205006,1783,-619,881
205025,1774,-611,874
205065,1759,-605,874
205106,1755,-593,882
205146,1757,-594,876
205185,1756,-591,862
205225,1755,-612,862
205288,1771,-597,859
205307,1773,-615,854
205345,1775,-590,873
205386,1766,-603,882
205426,1760,-604,881
205497,1777,-624,870
205535,1753,-623,864
205546,1756,-586,867
205588,1766,-625,879
205625,1771,-599,885
205687,1753,-598,883
205709,1759,-612,886
205745,1767,-609,873
205785,1769,-602,865
205825,1768,-614,880
205865,1769,-602,867
205905,1762,-591,864
205945,1754,-623,865
205985,1783,-616,874
206025,1761,-594,866
206097,1771,-595,874
206148,1754,-586,887
206159,1762,-593,892
206208,1760,-619,875
206259,1757,-593,855
206267,1767,-589,858
206305,1758,-608,883
206346,1756,-593,873
206385,1762,-601,887
206426,1766,-609,879
206493,1775,-599,880
206507,1772,-601,874
206546,1772,-619,877
206585,1774,-601,885
206626,1768,-614,860
206666,1759,-606,877
206705,1769,-620,883
206746,1769,-597,889
206808,1750,-607,862
206826,1762,-593,866
206869,1765,-615,884
206919,1769,-592,884
206978,1758,-593,880
206989,1747,-605,880
207025,1760,-613,862
207065,1767,-618,861
207105,1767,-597,870
207146,1772,-612,882
207185,1752,-604,868
207225,1761,-608,875
207297,1767,-611,884
207306,1762,-612,873
207345,1769,-611,869
207385,1764,-609,864
207425,1766,-614,867
207465,1777,-586,870
207528,1780,-582,889
207615,1762,-621,867
207630,1761,-622,868
207637,1759,-614,870
207687,1770,-598,880
207706,1757,-606,875
207761,1758,-595,884
207787,1766,-616,857
207826,1766,-605,875
207867,1773,-625,873
207906,1765,-615,871
207946,1747,-609,884
207986,1774,-594,877
208027,1766,-609,880
208098,1766,-609,869
208107,1759,-617,864
208147,1758,-599,872
208186,1763,-599,862
208286,1767,-604,886
208297,1755,-604,873
208347,1769,-612,877
208386,1776,-610,865
208396,1768,-606,863
208427,1762,-624,866
208466,1773,-609,862
208539,1770,-634,877
208548,1777,-624,882
208586,1757,-621,854
208626,1779,-595,882
208667,1756,-626,874
208706,1754,-591,879
208746,1767,-603,860
208786,1759,-631,864
208826,1778,-604,870
208889,1765,-590,866
208947,1765,-597,872
208956,1757,-615,876
208986,1759,-593,884
209027,1754,-618,868
209066,1761,-615,861
209106,1778,-599,865
209146,1765,-592,881
209186,1769,-618,881
209247,1758,-595,867
209337,1757,-616,868
209338,1763,-600,869
209347,1769,-584,878
209386,1759,-595,880
209438,1768,-588,866
209466,1759,-619,875
209506,1761,-602,861
209546,1760,-597,874
209586,1757,-578,882
209627,1756,-616,873
209698,1759,-604,888
209707,1762,-603,872
209757,1753,-612,878
209786,1767,-583,870
209826,1768,-604,880
209890,1769,-612,871
209931,1763,-604,893
209988,1757,-601,893
210006,1753,-592,874
210026,1762,-582,870
210066,1765,-607,878
210131,1756,-597,893
210146,1736,-623,882
210186,1750,-609,879
210226,1753,-599,901
210266,1765,-599,891
210306,1766,-600,887
210346,1752,-622,868
210386,1767,-611,882
210426,1777,-608,874
210490,1766,-599,863
210534,1761,-606,872
210583,1768,-606,872
210586,1768,-599,856
210633,1752,-594,895
210666,1762,-614,896
210706,1749,-612,897
210746,1764,-605,876
210786,1758,-593,874
210826,1758,-613,883
210890,1755,-600,867
210906,1761,-609,891
210946,1758,-595,868
210986,1764,-595,892
211026,1762,-595,893
211066,1755,-598,882
211106,1751,-599,866
211189,1767,-615,889
211228,1770,-604,875
211238,1764,-605,868
211347,1743,-585,877
211356,1753,-598,874
211366,1763,-604,883
211386,1763,-613,855
211426,1764,-584,875
211466,1767,-613,888
211507,1766,-599,868
211546,1758,-608,871
211586,1771,-573,872
211626,1761,-612,878
211698,1770,-595,887
211707,1764,-614,879
211746,1768,-604,866
211786,1760,-597,868
211826,1756,-599,857
211889,1753,-597,877
211941,1767,-603,872
211948,1767,-605,868
212009,1765,-601,895
212059,1763,-607,874
212108,1763,-594,873
212117,1770,-590,864
212148,1754,-609,892
212187,1780,-592,878
212228,1765,-613,897
212268,1756,-610,898
212308,1749,-587,861
212347,1769,-614,880
212388,1759,-604,888
212428,1758,-591,886
212491,1762,-628,879
212507,1758,-594,884
212547,1755,-593,894
212601,1760,-598,896
212659,1756,-606,874
212669,1764,-622,893
212742,1755,-604,890
212750,1754,-599,845
212787,1758,-597,883
212827,1756,-594,875
212897,1758,-597,878
212908,1761,-594,878
212947,1773,-620,885
212987,1766,-615,868
213027,1761,-601,884
213067,1750,-600,874
213107,1757,-586,879
213147,1760,-586,880
213187,1754,-610,882
213227,1750,-604,874
213298,1764,-595,869
213348,1760,-605,884
213358,1760,-605,888
213388,1769,-609,899
213428,1758,-609,873
213476,1748,-596,880
213508,1772,-606,858
213547,1765,-606,875
213588,1757,-594,872
213641,1749,-598,901
213680,1760,-595,862
213707,1758,-602,863
213747,1757,-620,879
213828,1751,-600,880
213837,1762,-596,883
213867,1758,-576,863
213907,1745,-610,876
213947,1763,-602,873
213987,1760,-609,889
214027,1761,-600,878
214093,1757,-611,887
214107,1770,-588,863
214147,1761,-596,874
214187,1761,-616,882
214232,1757,-592,875
214292,1766,-601,882
214331,1763,-604,892
214342,1758,-594,874
214387,1765,-589,876
214427,1764,-612,876
214488,1765,-601,866
214507,1753,-601,880
214547,1767,-603,877
214587,1749,-592,896
214627,1759,-588,884
214667,1751,-603,877
214707,1753,-607,878
214747,1750,-620,873
214787,1765,-602,864
214827,1767,-583,881
214933,1755,-590,881
214937,1745,-603,887
214950,1770,-604,894
215001,1769,-613,873
215060,1758,-610,867
215068,1768,-596,884
215107,1758,-591,879
215147,1760,-624,894
215188,1766,-616,894
215227,1763,-593,887
215300,1764,-596,891
215308,1764,-595,877
215347,1756,-614,874
215387,1763,-609,871
215427,1766,-598,885
215467,1774,-600,870
215507,1753,-597,879
215547,1743,-600,890
215611,1753,-611,875
215653,1759,-592,878
215662,1779,-613,869
215733,1763,-586,876
215741,1763,-587,878
215809,1762,-593,884
215851,1756,-600,887
215867,1760,-603,889
215907,1756,-613,885
215947,1762,-612,867
215987,1757,-603,866
216027,1749,-613,881
216091,1756,-614,885
216107,1751,-618,885
216147,1757,-597,887
216187,1753,-618,890
216228,1761,-595,879
216267,1754,-615,887
216308,1768,-598,881
216349,1755,-616,879
216391,1770,-600,867
216440,1749,-589,871
216530,1765,-591,882
216570,1771,-622,862
216578,1758,-615,858
216588,1768,-613,884
216629,1762,-610,871
216669,1764,-598,883
216708,1753,-587,894
216748,1756,-597,899
216789,1758,-592,885
216828,1756,-613,875
216890,1771,-602,858
216908,1756,-605,895
216948,1765,-585,869
216988,1771,-613,885
217029,1756,-594,890
217068,1749,-597,902
217113,1750,-606,891
217199,1761,-590,888
217208,1746,-599,871
217229,1764,-595,865
217268,1753,-624,871
217350,1771,-583,893
217358,1768,-580,903
217388,1764,-607,886
217429,1762,-607,887
217468,1765,-590,906
217509,1748,-612,882
217548,1758,-584,880
217588,1763,-599,875
217629,1763,-624,882
217693,1760,-581,873
217708,1754,-607,893
217748,1767,-594,894
217779,1753,-593,889
217838,1767,-607,878
217868,1750,-611,900
217899,1753,-592,880
217982,1756,-605,882
217990,1751,-594,870
218033,1750,-602,869
218082,1752,-601,871
218109,1761,-596,890
218149,1764,-605,903
218221,1750,-615,871
218230,1772,-603,892
218269,1752,-600,886
218308,1754,-602,864
218349,1763,-605,888
218389,1749,-588,877
218429,1750,-611,884
218499,1762,-588,911
218519,1766,-591,891
218549,1759,-598,890
218619,1770,-594,871
218630,1759,-624,878
218685,1765,-605,868
218739,1743,-623,876
218750,1756,-606,883
218789,1755,-588,876
218828,1768,-617,882
218868,1760,-600,876
218908,1765,-610,866
218980,1759,-603,862
218989,1782,-601,866
219028,1757,-597,877
219068,1762,-607,876
219108,1756,-601,884
219148,1758,-609,868
219188,1759,-595,883
219228,1762,-632,865
219320,1765,-588,851
219333,1755,-593,878
219341,1753,-592,880
219384,1753,-614,870
219441,1758,-600,883
219468,1752,-599,887
219508,1765,-606,890
219548,1770,-602,865
219588,1765,-599,861
219628,1751,-617,873
219692,1746,-609,878
219699,1750,-605,890
219748,1761,-604,880
219788,1759,-609,875
219828,1754,-606,877
219868,1766,-603,865
219908,1759,-596,882
219948,1763,-617,892
220000,1761,-599,900
220060,1755,-604,884
220071,1761,-596,867
220151,1748,-621,894
220201,1764,-616,878
220213,1753,-605,889
220259,1766,-603,880
220269,1766,-586,879
220309,1754,-600,876
220349,1767,-599,897
220389,1761,-600,885
220429,1762,-609,876
220494,1762,-598,876
220500,1760,-589,892
220549,1761,-603,869
220589,1762,-595,900
220629,1762,-603,893
220669,1769,-598,884
220709,1761,-602,883
220749,1753,-605,897
220801,1757,-600,890
220860,1759,-597,875
220935,1755,-579,876
220950,1766,-586,881
220969,1767,-608,887
220989,1760,-619,872
221029,1762,-593,893
221069,1748,-611,877
221109,1765,-592,869
221149,1759,-590,893
221189,1754,-599,863
221229,1745,-604,879
221295,1765,-602,884
221300,1759,-616,860
221350,1767,-585,887
221380,1750,-596,872
221429,1760,-599,874
221461,1760,-610,889
221499,1766,-600,863
221574,1751,-605,882
221580,1761,-607,861
221668,1764,-587,874
221681,1759,-595,886
221700,1760,-605,884
221740,1765,-594,879
221814,1759,-592,853
221820,1776,-616,853
221860,1789,-566,835
221900,1773,-589,851
221940,1733,-629,890
221990,1718,-617,958
222030,1713,-639,956
222083,1720,-599,955
222110,1703,-578,943
222150,1741,-598,896
222220,1764,-568,872
222226,1750,-577,889
222292,1746,-608,894
222332,1751,-610,928
222343,1749,-606,908
222380,1738,-598,907
222420,1733,-600,921
222491,1737,-606,916
222500,1731,-598,910
222540,1740,-603,893
222590,1732,-597,901
222629,1742,-592,906
222660,1738,-605,897
222700,1738,-595,918
222750,1732,-610,925
222780,1743,-612,918
222830,1727,-611,907
222891,1747,-601,911
222932,1740,-602,907
222968,1746,-612,905
222982,1732,-614,885
223032,1750,-605,907
223080,1749,-603,924
223100,1736,-564,924
223150,1738,-608,922
223180,1738,-619,902
223230,1752,-610,882
223300,1737,-594,911
223310,1740,-593,925
223350,1739,-598,911
223389,1744,-602,911
223420,1747,-601,919
223470,1731,-610,921
223509,1751,-615,910
223540,1742,-601,907
223590,1738,-605,904
223679,1742,-602,924
223683,1736,-611,923
223730,1740,-596,921
223769,1745,-609,906
223781,1745,-615,913
223831,1739,-597,908
223860,1744,-601,906
223910,1740,-606,928
223940,1730,-604,910
223980,1723,-609,918
224030,1748,-609,910
224091,1728,-616,892
224100,1745,-597,896
224140,1753,-590,911
224180,1729,-605,911
224220,1754,-627,904
224260,1737,-617,903
224300,1734,-626,924
224372,1721,-595,936
224422,1733,-599,928
224434,1747,-601,931
224471,1741,-615,914
224546,1787,-595,844
224561,1800,-585,849
224580,1814,-561,811
224620,1836,-564,791
224660,1848,-540,770
224700,1837,-567,731
224740,1848,-546,759
224780,1845,-574,783
224820,1826,-576,797
224891,1799,-562,826
224900,1800,-562,855
224940,1786,-565,837
224980,1805,-569,823
225020,1821,-582,806
225101,1833,-607,799
225191,1822,-599,822
225200,1814,-598,832
225210,1810,-591,831
225220,1801,-572,820
225261,1810,-547,815
225300,1808,-574,822
225341,1801,-557,820
225380,1806,-559,829
225420,1795,-558,830
225461,1799,-577,848
225500,1795,-568,842
225541,1810,-564,833
225580,1805,-558,822
225621,1804,-561,835
225684,1793,-587,832
225700,1812,-601,828
225741,1806,-547,834
225780,1805,-559,836
225820,1807,-560,820
225861,1805,-560,821
225900,1823,-590,855
225951,1802,-575,842
226006,1753,-659,866
226054,1785,-525,868
226061,1784,-582,888
226100,1802,-584,856
226141,1790,-580,795
226192,1815,-580,795
226220,1824,-562,827
226260,1848,-579,838
226300,1817,-628,823
226341,1810,-513,786
226381,1834,-616,768
226420,1809,-687,782
226485,1810,-630,776
226500,1820,-649,783
226540,1801,-652,779
226602,1831,-609,760
226651,1825,-607,771
226703,1830,-602,762
226711,1826,-584,767
226741,1827,-554,759
226781,1844,-476,761
226820,1783,-585,734
226884,1848,-514,665
226900,1854,-712,595
226940,1893,-670,567
226980,1892,-1106,531
227021,1955,-956,455
227060,1908,-790,432
227100,1873,-935,429
227141,1874,-935,426
227181,1841,-910,410
227240,1855,-875,440
227293,1895,-884,320
227300,1894,-869,302
227353,1934,-1054,211
227401,1903,-891,136
227461,1841,-966,267
227470,1835,-930,251
227501,1857,-1014,159
227541,1883,-1105,68
227581,1934,-1187,-24
227621,1920,-1229,-32
227692,1910,-1123,-42
227702,1940,-1083,-60
227740,1874,-1132,40
227781,1887,-1134,-18
227821,1876,-1083,45
227862,1915,-1044,-6
227901,1942,-1041,-71
227942,1969,-1109,-30
227999,1980,-1044,26
228053,1802,-1001,172
228064,1828,-1007,193
228130,1896,-964,193
228143,1936,-972,162
228201,1968,-938,15
228221,1944,-918,66
228261,2011,-1013,97
228302,2002,-890,46
228341,1872,-882,184
228382,2082,-766,156
228422,1990,-732,126
228488,1999,-546,330
228502,1966,-463,318
228542,2060,-391,204
228581,2087,-315,144
228621,2035,-415,310
228661,2019,-297,296
228742,2096,-445,218
228785,2079,-481,233
228795,2091,-519,261
228834,2068,-493,278
228862,2047,-468,280
228943,2075,-486,264
228951,2066,-485,275
228981,2045,-486,266
229021,2074,-506,247
229061,2047,-417,259
229101,2047,-352,330
229141,2031,-487,253
229182,2009,-486,277
229222,1958,-445,353
229285,2088,-563,-62
229301,2064,-537,-23
229342,2008,-612,-177
229393,2274,-710,-432
229452,2312,-979,-607
229496,2106,-1073,-204
229502,2091,-1110,-180
229542,2091,-659,-412
229582,2026,368,-200
229622,1975,-559,70
229684,2199,-545,-277
229703,2177,-403,-276
229741,2195,-652,-287
229781,2190,-522,-338
229821,1821,-437,-2
229861,2218,-586,-347
229901,2085,-643,-368
229941,2097,-469,-443
229981,2190,-467,-462
230043,2097,-569,-418
230093,2205,-881,-505
230103,2250,-932,-531
230142,2134,-508,-691
230182,1999,584,-333
230251,2146,-1202,-346
230262,2160,-1165,-384
230301,2146,-976,-344
230341,2153,-769,-393
230406,2795,-776,-134
230453,2592,-762,-214
230465,2413,-915,-215
230501,1908,-1056,-288
230541,1752,-1294,-422
230593,1698,-1508,-625
230621,1520,-1126,-755
230661,1431,-1158,-727
230701,1382,-1502,-730
230741,1395,-1263,-634
230781,1390,-1444,-500
230821,1597,-1451,-474
230884,1685,-1623,-364
230901,1739,-1698,-341
230941,1680,-1578,-301
231014,1558,-970,-90
231024,1536,-951,-58
231094,1566,-1442,-126
231103,1580,-1432,-142
231158,1605,-1287,-148
231181,1618,-1171,-106
231222,1717,-1223,-141
231262,1750,-1328,-106
231314,1750,-1289,-125
231342,1761,-1209,-146
231382,1801,-1433,-181
231422,1791,-1383,-199
231462,1740,-1359,-117
231502,1730,-1277,-38
231542,1748,-1552,-136
231582,1707,-1409,-181
231622,1682,-1265,-141
231685,1626,-1580,-188
231733,1507,-1298,-222
231777,1544,-1534,-359
231781,1506,-1516,-376
231861,1461,-1361,-364
231884,1665,-1562,-371
231924,1718,-1832,-250
231942,1724,-1680,-216
231982,1766,-1377,-201
232022,1832,-1238,-155
232095,1847,-1556,79
232104,1823,-1588,97
232142,1744,-1009,174
232183,1746,-1014,282
232222,1712,-1225,402
232262,1651,-828,540
232302,1665,-1088,534
232342,1679,-970,556
232382,1673,-1104,620
232422,1684,-1020,582
232464,1710,-866,446
232503,1785,-887,304
232545,1802,-1019,83
232602,1815,-1198,-114
232622,1837,-1481,-218
232662,1817,-1650,-187
232702,1759,-1530,-224
232742,1750,-1628,-274
232782,1729,-1269,-275
232822,1719,-1168,-278
232894,1789,-1250,-296
232903,1811,-1236,-265
232942,1825,-1323,-247
232982,1838,-1382,-234
233022,1812,-1303,-211
233062,1806,-1055,-153
233131,1810,-1221,-108
233144,1818,-1226,-119
233193,1792,-1393,-123
233244,1743,-1274,-136
233262,1707,-1301,-88
233328,1720,-1318,-80
233344,1727,-1314,-50
233382,1723,-1309,-34
233422,1749,-1281,6
233462,1761,-1266,-17
233502,1794,-1261,-21
233542,1810,-1249,-48
233582,1787,-1178,-5
233622,1811,-1120,31
233684,1839,-1245,43
233703,1825,-1227,47
233742,1801,-1189,54
233788,1796,-1196,85
233833,1816,-1190,88
233886,1806,-1120,95
233903,1812,-1128,86
233942,1798,-1146,112
233983,1814,-1113,94
234022,1826,-1133,88
234086,1876,-1336,137
234103,1869,-1371,158
234142,1832,-1265,171
234182,1809,-1349,256
234222,1781,-1028,341
234262,1734,-996,414
234302,1770,-1103,457
234342,1730,-1113,461
234382,1706,-1128,569
234432,1619,-1047,571
234464,1662,-1051,532
234502,1683,-998,475
234542,1627,-997,500
234602,1706,-973,443
234634,1706,-933,344
234662,1754,-1050,296
234734,1817,-891,-12
234745,1837,-1025,-14
234797,1953,-1923,-259
234855,1748,-1673,-147
234864,1740,-1652,-150
234902,1877,-1384,-309
234942,1829,-1421,-348
234998,1840,-684,-282
235023,1947,-1098,-294
235063,1827,-1258,-115
235103,1797,-1057,-8
235143,1849,-1102,-104
235183,1880,-1173,-64
235223,1998,-1286,28
235285,2096,-846,55
235304,1996,-535,90
235343,1900,-327,338
235409,2046,-551,479
235452,2130,-372,491
235466,2145,-517,363
235517,2170,-1269,444
235558,1915,-929,445
235614,1597,-915,443
235623,1568,-982,419
235664,1460,-1058,403
235715,1530,-1225,406
235743,1202,-965,209
235784,1547,-1389,358
235824,1631,-1464,381
235864,1621,-1510,267
235904,1590,-1311,218
235944,1617,-1252,208
235984,1623,-1351,181
236024,1656,-1483,168
236090,1454,-1493,202
236105,1447,-1654,246
236154,1400,-1940,145
236208,1612,-1162,94
236253,1483,-1364,64
236263,1403,-1309,115
236304,1519,-522,13
236344,1651,226,-456
236384,2021,361,-1206
236424,2228,-1165,-1593
236497,2614,-1544,-1114
236505,2593,-1232,-1181
236544,2321,-646,-1247
236584,2135,-853,-1154
236624,1950,-1040,-1008
236663,1661,-948,-1025
236703,1298,-849,-809
236743,1224,-740,-936
236787,1533,-1673,-1434
236897,1541,-1076,-1731
236903,1567,-1133,-1693
236915,1584,-1212,-1646
236966,1497,-1046,-1536
236983,1471,-1023,-1599
237023,1436,-1144,-1622
237063,1297,-1264,-1522
237103,1274,-1032,-1484
237143,1298,-1345,-1555
237183,1247,-1314,-1605
237223,1202,-1279,-1608
237289,1144,-1309,-1657
237304,1131,-1302,-1578
237343,1240,-1419,-1694
237383,1158,-1383,-1602
237423,1177,-1395,-1593
237463,1186,-1407,-1554
237516,1054,-1198,-1413
237578,1109,-1356,-1424
237585,1088,-1330,-1409
237636,1163,-1276,-1371
237663,1261,-1496,-1665
237736,1209,-1333,-1625
237745,1227,-1325,-1617
237783,1276,-1356,-1555
237823,1230,-1499,-1402
237863,1242,-1108,-1501
237903,1268,-1723,-1284
237944,1235,-1357,-1280
237983,1307,-989,-1357
238024,1331,-1642,-1222
238096,1251,-1209,-1092
238105,1261,-1263,-1093
238174,1347,-1580,-1184
238185,1328,-1530,-1176
238233,1328,-1568,-1274
238275,1300,-1552,-1266
238336,1179,-1575,-1179
238346,1234,-1440,-1177
238383,1433,-1688,-1109
238424,1255,-1268,-1338
238482,1315,-1486,-1232
238505,1328,-1192,-1217
238543,1281,-1386,-1211
238584,1280,-1343,-1208
238623,1267,-1344,-1212
238664,1484,-1357,-1333
238704,1408,-1340,-1255
238744,1481,-1568,-1357
238784,1374,-1096,-1421
238824,1354,-1406,-1303
238886,1291,-1158,-1290
238945,1358,-1388,-1497
238954,1314,-1342,-1508
238984,1321,-1194,-1435
239024,1380,-1471,-1507
239085,1344,-1484,-1397
239104,1392,-1710,-1383
239145,1385,-1224,-1470
239183,1285,-1266,-1549
239233,1296,-1425,-1569
239296,1402,-1344,-1580
239302,1430,-1390,-1575
239349,1253,-1298,-968
239405,1459,-1377,-1246
239424,1488,-1558,-1279
239464,1360,-1448,-1176
239504,1325,-1130,-925
239544,1456,-1199,-905
239584,1580,-1224,-926
239624,1804,-1189,-972
239688,1977,-1117,-1179
239704,1915,-1172,-1139
239744,1857,-967,-1185
239784,1758,-1168,-1020
239824,1599,-1256,-890
239896,1658,-1231,-1115
239938,1704,-1080,-1233
239946,1657,-924,-1261
239994,1681,-1024,-1173
240037,1751,-1065,-1071
240064,1778,-1067,-1113
240136,1738,-1030,-1062
240146,1697,-1066,-1054
240184,1696,-1073,-997
240224,1598,-1002,-955
240264,1637,-1011,-998
240304,1653,-1108,-1068
240344,1685,-1111,-1136
240385,1700,-924,-1144
240425,1755,-1010,-1104
240487,1820,-1054,-1144
240505,1854,-1037,-1161
240578,1830,-997,-1140
240585,1830,-1032,-1152
240666,1744,-1011,-1047
240669,1727,-1030,-1048
240705,1737,-1007,-1083
240745,1764,-946,-1160
240784,1774,-849,-1177
240825,1771,-1050,-1144
240891,1781,-946,-1175
240906,1774,-917,-1187
240945,1783,-941,-1150
240985,1753,-791,-1175
241025,1773,-1089,-1129
241064,1800,-1137,-1148
241104,1734,-1033,-1180
241144,1685,-773,-1172
241221,1751,-1037,-1203
241225,1753,-1029,-1202
241267,1771,-882,-1210
241316,1770,-982,-1114
241379,1861,-897,-1216
241385,1881,-919,-1256
241424,1819,-753,-1215
241464,1815,-1095,-1152
241504,1717,-867,-1114
241544,1754,-876,-1201
241584,1721,-923,-1175
241624,1746,-919,-1189
241694,1746,-935,-1141
241705,1733,-890,-1130
241744,1782,-799,-1150
241784,1752,-1072,-1229
241824,1759,-1041,-1157
241864,1770,-839,-1124
241930,1825,-1033,-1153
241975,1780,-885,-1110
241987,1768,-907,-1085
242045,1767,-967,-1131
242064,1766,-934,-1160
242124,1779,-1045,-1142
242144,1769,-1056,-1133
242184,1720,-935,-1068
242224,1763,-1059,-1065
242264,1779,-944,-1126
242304,1824,-869,-1137
242345,1829,-1023,-1176
242384,1873,-1179,-1125
242424,2052,-1143,-1160
242495,1796,-735,-1248
242505,1792,-681,-1252
242544,1805,-764,-1263
242606,1730,-574,-1074
242649,1753,-760,-977
242660,1749,-816,-973
242705,1777,-818,-994
242745,1800,-981,-940
242785,1840,-887,-947
242826,1784,-569,-1051
242895,1971,-1368,-918
242905,2014,-1356,-918
242945,2037,-824,-913
242986,2052,-774,-955
243025,1994,-1007,-936
243066,1896,-787,-939
243105,1843,-772,-939
243145,1828,-861,-946
243185,1800,-1069,-943
243225,1879,-823,-1038
243277,1835,-905,-1101
243318,1868,-824,-1150
243345,1850,-849,-1148
243385,1847,-748,-1157
243455,1901,-986,-1160
243467,1868,-1062,-1156
243506,1863,-796,-1109
243546,1829,-814,-1141
243619,1841,-817,-1191
243660,1859,-918,-1195
243668,1897,-869,-1104
243717,1856,-927,-1153
243768,1763,-1059,-1091
243816,1689,-1038,-1047
243825,1684,-1012,-1053
243865,1645,-1016,-1007
243906,1701,-974,-1028
243946,1750,-986,-1088
243985,1810,-1002,-1123
244025,1806,-999,-1135
244096,1776,-993,-1095
244106,1789,-1023,-1087
244145,1752,-1045,-1081
244185,1756,-1069,-1078
244225,1689,-1113,-1084
244265,1689,-1051,-1053
244307,1651,-1069,-1100
244368,1717,-937,-1115
244406,1746,-936,-1084
244425,1752,-994,-1093
244465,1814,-967,-1193
244517,1872,-1015,-1248
244545,1842,-868,-1194
244585,1827,-942,-1141
244625,1810,-918,-1143
244665,1817,-916,-1125
244706,1866,-1007,-1102
244745,1834,-1020,-1166
244785,1869,-785,-1198
244825,1766,-1128,-983
244896,1725,-1085,-1108
244905,1710,-921,-1169
244957,1615,-833,-1072
245057,1680,-976,-1163
245107,1729,-992,-1161
245116,1717,-1000,-1166
245125,1766,-1058,-1166
245145,1792,-1204,-1108
245185,1710,-1024,-1066
245225,1808,-1257,-1093
245296,1629,-787,-1059
245306,1650,-781,-1052
245346,1671,-1103,-1056
245386,1759,-1019,-1185
245426,1791,-950,-1225
245466,1783,-1055,-1159
245506,1780,-999,-1229
245546,1675,-984,-1220
245586,1625,-1070,-1130
245696,1847,-1059,-1198
245747,1785,-897,-1193
245789,1747,-915,-1069
245798,1754,-982,-1070
245805,1753,-1036,-1070
245826,1753,-1069,-1073
245866,1710,-922,-1083
245906,1745,-948,-1100
245946,1765,-917,-1147
245986,1787,-1083,-1166
246026,1797,-866,-1195
246096,1810,-937,-1153
246105,1803,-979,-1154
246145,1786,-1017,-1152
246185,1759,-975,-1153
246225,1751,-1064,-1126
246265,1747,-1012,-1120
246346,1727,-1033,-1110
246398,1684,-1054,-1073
246437,1628,-955,-1000
246448,1628,-1023,-951
246465,1619,-1144,-900
246506,1566,-1050,-913
246548,1529,-903,-899
246585,1567,-932,-783
246626,1584,-1190,-592
246666,1678,-1204,-564
246706,2450,-1224,-240
246746,3276,-1196,-201
246786,1051,-1155,-582
246826,1911,-1660,59
246887,1711,-539,-465
246906,1687,-761,-395
246946,1954,-1108,-326
247006,1851,-1016,-534
247051,1952,-1189,-529
247066,1944,-1134,-527
247108,1968,-1134,-514
247167,1898,-995,-455
247186,1917,-1081,-447
247226,1923,-1179,-429
247266,1902,-1110,-386
247317,1651,-614,-454
247346,1991,-1204,-288
247386,1992,-1367,-428
247426,1942,-1145,-427
247466,1713,-747,-484
247506,2114,-713,-650
247546,2066,-1471,-669
247586,1918,-789,-639
247626,1894,-1015,-583
247723,1937,-1037,-544
247736,1969,-972,-559
247747,2028,-880,-559
247787,1955,-764,-507
247826,1923,-809,-442
247876,1957,-1141,-475
247906,1953,-889,-480
247947,1937,-964,-431
248017,2000,-907,-495
248028,1919,-821,-527
248116,1957,-906,-472
248126,1946,-920,-442
248146,1931,-928,-459
248207,1972,-1043,-461
248226,1976,-1053,-439
248266,1936,-1007,-531
248306,1936,-870,-523
248346,1936,-888,-480
248386,1912,-1010,-599
248426,1978,-1087,-569
248491,1954,-625,-707
248506,2011,-912,-692
248546,1979,-1245,-732
248586,1943,-919,-801
248668,1885,-972,-732
248712,1936,-946,-718
248750,1966,-928,-639
248760,1965,-1001,-641
248786,1975,-1054,-629
248826,1939,-744,-715
248866,1963,-866,-701
248907,1939,-865,-620
248946,1904,-1002,-712
248986,1925,-1019,-802
249026,1956,-1009,-768
249066,1924,-867,-760
249106,1980,-962,-733
249146,2033,-869,-758
249186,1965,-906,-694
249226,1929,-977,-672
249322,1996,-982,-643
249338,1989,-1010,-621
249347,1994,-988,-600
249390,1937,-945,-543
249448,1965,-637,-518
249466,1930,-747,-518
249506,1935,-1048,-441
249546,1891,-750,-501
249586,1948,-1018,-532
249626,1984,-1205,-525
249698,2043,-1298,-531
249706,2040,-1365,-472
249746,1797,-1028,-394
249786,1875,-862,-246
249826,1891,-885,-203
249866,1929,-852,-206
249906,1947,-981,-167
249947,1903,-981,-218
250000,1934,-1053,-201
250048,1970,-1051,-243
250098,2014,-899,-335
250106,2013,-989,-323
250147,2039,-1402,-308
250186,1952,-1120,-292
250226,1899,-809,-267
250267,1960,-856,-243
250307,2015,-830,-316
250347,2007,-903,-311
250387,1973,-1136,-213
250427,1932,-995,-219
250491,1977,-819,-311
250507,1945,-888,-333
250547,1996,-732,-403
250587,1961,-729,-477
250627,2010,-816,-470
250667,1957,-813,-642
250710,1959,-1098,-726
250758,1913,-924,-878
250780,1947,-934,-913
250820,1902,-908,-903
250915,1926,-989,-894
250927,1891,-955,-836
250947,1894,-867,-862
250987,1901,-897,-829
251027,1933,-829,-862
251067,1964,-891,-892
251107,1920,-923,-889
251147,1845,-980,-902
251187,2000,-839,-902
251227,1911,-804,-842
251298,1966,-870,-875
251308,1949,-807,-866
251347,1921,-861,-834
251429,1947,-761,-858
251439,1954,-722,-835
251489,1922,-939,-790
251530,1961,-769,-801
251579,1951,-866,-850
251588,1972,-855,-855
251627,1928,-823,-918
251667,1985,-830,-864
251727,1944,-853,-824
251748,1866,-709,-826
251787,1939,-758,-775
251827,2008,-826,-840
251867,2006,-622,-863
251907,1979,-716,-932
251947,1959,-854,-871
251987,1941,-725,-869
252027,2013,-814,-859
252093,1942,-704,-877
252140,1922,-963,-790
252142,1932,-958,-788
252187,1943,-690,-887
252227,1995,-833,-806
252288,1954,-715,-879
252308,1974,-789,-861
252348,1910,-829,-821
252387,1952,-812,-829
252419,1986,-667,-866
252463,2017,-1035,-850
252511,1949,-753,-714
252548,1858,-706,-753
252609,1902,-718,-695
252628,1933,-747,-702
252668,2033,-836,-843
252708,1947,-957,-868
252748,1898,-775,-909
252788,1938,-831,-918
252828,1922,-832,-879
252890,1933,-757,-897
252907,1969,-833,-866
252948,2049,-867,-865
252988,1937,-771,-834
253061,1947,-702,-907
253069,1945,-731,-900
253139,1959,-832,-949
253151,1954,-855,-925
253201,1943,-748,-883
253228,2000,-672,-921
253301,2002,-955,-863
253307,1999,-914,-787
253348,1942,-737,-873
253388,1957,-710,-790
253427,1919,-822,-742
253467,1945,-715,-780
253507,1919,-879,-688
253547,1982,-790,-824
253587,1999,-811,-850
253627,2088,-1003,-943
253700,1886,-763,-751
253708,1923,-748,-766
253792,1968,-747,-643
253797,1981,-736,-648
253852,2034,-863,-663
253860,2008,-865,-651
253909,1975,-728,-692
253949,2055,-817,-699
253988,1928,-787,-698
254029,1896,-652,-703
254100,2031,-719,-754
254109,2046,-719,-745
254149,2040,-741,-693
254189,2059,-727,-779
254229,2065,-591,-808
254269,2034,-625,-844
254309,2055,-628,-797
254349,2006,-631,-748
254413,2082,-538,-818
254452,2023,-506,-831
254461,2033,-560,-799
254511,2000,-599,-800
254562,2035,-752,-777
254618,1992,-532,-778
254628,2018,-542,-775
254668,2060,-705,-786
254708,1998,-596,-766
254748,2030,-643,-763
254788,2028,-637,-825
254828,2030,-721,-805
254893,2008,-598,-803
254908,2018,-591,-831
254948,2014,-556,-842
254988,2028,-730,-893
255028,2035,-655,-899
255068,1980,-647,-854
255108,2042,-720,-816
255160,2071,-627,-838
255209,1922,-456,-835
255262,2183,-708,-831
255343,2044,-725,-808
255348,2045,-758,-798
255368,1980,-584,-833
255388,1940,-506,-784
255428,1921,-934,-691
255468,1979,-866,-631
255508,2123,-984,-607
255548,2058,-878,-520
255588,2196,-513,-383
255628,2233,-1008,-293
255690,2107,-813,-371
255708,2083,-1032,-410
255748,1963,-1068,-503
255788,1839,-771,-607
255850,1725,-1043,-633
255887,1851,-981,-651
255939,1898,-1118,-617
255949,1907,-1190,-599
255988,1935,-1388,-574
256028,1782,-1204,-566
256094,1759,-1219,-431
256100,1746,-1313,-425
256148,1644,-1162,-405
256188,1673,-1018,-355
256228,1660,-1268,-350
256268,1717,-1274,-320
256308,1741,-1472,-264
256348,1716,-1384,-263
256388,1765,-1104,-245
256428,1789,-1204,-241
256482,1798,-1111,-255
256509,1808,-1004,-258
256558,1810,-1511,-243
256589,1799,-1427,-244
256628,1774,-1275,-297
256669,1743,-1087,-322
256708,1771,-1343,-273
256782,1838,-1211,-382
256790,1821,-1209,-379
256833,1869,-1231,-375
256882,1828,-1074,-372
256910,1859,-1113,-373
256950,1884,-1229,-375
256990,1891,-1143,-400
257033,1910,-1180,-411
257060,1877,-1083,-388
257100,1875,-1139,-367
257140,1856,-1161,-400
257190,1852,-1145,-408
257230,1838,-1122,-403
257291,1838,-1091,-408
257299,1851,-1112,-420
257350,1889,-1187,-424
257380,1850,-1120,-425
257430,1860,-1154,-404
257482,1865,-1097,-424
257500,1889,-1129,-434
257550,1860,-1137,-441
257580,1827,-1092,-439
257620,1817,-1082,-487
257660,1836,-1195,-480
257704,1889,-1126,-526
257740,1863,-1066,-529
257780,1915,-1143,-508
257820,1884,-1029,-485
257860,1909,-1026,-406
257900,1764,-831,-412
257940,1590,-731,-409
257990,1438,-952,-356
258030,1477,-556,-347
258083,2843,-959,-132
258139,1538,-78,-723
258140,1433,-91,-777
258192,1414,-802,-225
258251,3015,-1066,-208
258261,3029,-846,-229
258309,1615,-720,-336
258340,1947,-1010,-277
258389,2138,-807,-227
258429,1806,-649,-203
258491,2031,-839,-289
258500,2009,-809,-267
258550,1998,-779,-377
258589,2030,-815,-468
258629,2029,-856,-507
258660,2013,-918,-460
258710,2083,-892,-534
258749,2050,-902,-571
258800,2138,-886,-564
258822,2109,-801,-597
258870,2268,-768,-498
258972,2366,-511,-378
258980,2423,-474,-316
259022,2255,-303,-167
259031,2084,-338,-159
259079,1932,-821,-223
259100,1816,-628,-299
259149,1804,-300,-104
259180,1254,-262,-75
259230,1561,285,264
259302,1649,-250,-129
259309,1522,-248,-107
259349,2072,81,16
259390,2303,571,-15
259429,2465,8,-181
259470,2101,71,-419
259500,1994,174,-602
259550,2641,-60,-413
259620,2400,-7,-512
259632,2283,44,-552
259722,1954,22,-501
259764,2072,9,-518
259803,2068,67,-532
259812,2183,199,-518
259820,2300,217,-433
259869,1853,200,-230
259910,2377,322,193
259940,1936,461,74
259990,2313,912,-565
260020,2121,1029,-116
260085,1550,1615,128
260101,1609,1370,225
260150,1618,734,439
260180,2100,1301,526
260230,1800,1892,710
260260,1515,1455,594
260301,1918,1267,292
260349,1516,1403,284
260403,1403,1979,260
260451,1393,1407,251
260493,916,1486,464
260503,883,1604,443
260540,876,1313,237
260581,573,642,339
260620,89,1922,118
260661,-257,2057,169
260700,-859,2182,257
260741,-959,2169,474
260780,-1057,1904,1121
260821,-924,1145,1422
260882,-808,600,1859
260901,-745,800,1673
260941,-738,1311,1609
260981,-525,798,1528
261023,-270,404,1580
261060,18,342,1683
261100,165,540,1628
261164,327,517,1620
261214,434,226,1484
261221,434,222,1486
261262,501,230,1450
261301,332,547,1453
261340,267,653,1438
261404,174,982,1654
261420,0,1135,1720
261460,-144,1063,1650
261501,118,370,1591
261540,295,661,1598
261580,597,986,1628
261621,971,1226,1785
261681,1527,1064,1195
261701,1679,925,1035
261740,1571,1355,867
261822,1295,689,699
261866,730,331,1522
261873,540,407,1739
261914,-562,848,2131
261940,-922,2,2313
261980,534,272,2017
262021,806,1084,1419
262085,1272,27,1288
262102,1225,227,1230
262140,1141,1023,988
262181,959,1597,1006
262220,1003,1052,1130
262260,1051,484,1256
262300,1103,604,1296
262340,1190,1067,1252
262380,1125,1271,1241
262420,1126,1095,1249
262483,1045,1172,1515
262525,1088,836,1449
262582,1181,1194,1484
262627,1162,1175,1440
262682,1365,499,1287
262692,1426,516,1277
262701,1379,728,1244
262743,1321,432,1506
262780,1323,343,1383
262820,1197,418,1253
262860,1165,296,1278
262922,1344,375,1205
262940,1486,514,1242
262981,1487,413,1229
263021,1397,634,1359
263061,1372,605,1329
263101,1340,474,1307
263141,1306,450,1343
263180,1347,451,1341
263220,1228,646,1388
263321,1304,266,1315
263330,1262,475,1525
263343,1315,481,1419
263383,1362,488,1285
263434,1457,344,1088
263461,1524,469,1090
263501,1491,543,1116
263541,1368,387,1498
263581,1248,207,1659
263621,1339,334,1332
263683,1388,402,1378
263702,1340,505,1354
263741,1276,763,1350
263782,1392,474,1336
263821,1378,482,1272
263862,1380,731,1358
263901,1272,107,1333
263982,1387,787,1384
264026,1361,525,1386
264061,1309,391,1390
264064,1294,402,1386
264121,1158,468,1415
264142,1127,521,1384
264182,1113,575,1412
264222,1172,569,1392
264262,1227,587,1336
264302,1286,692,1397
264341,1296,682,1397
264382,1314,654,1432
264422,1259,699,1381
264486,1095,629,1261
264501,1059,657,1264
264542,1069,516,1329
264619,1253,721,1401
264623,1254,750,1454
264673,1330,835,1457
264718,1313,746,1388
264742,1256,703,1406
264781,1204,550,1378
264821,1145,542,1376
264894,1099,681,1368
264901,1114,696,1380
264942,1126,711,1425
264982,1137,779,1413
265022,1173,771,1443
265062,1138,749,1453
265101,1086,728,1439
265141,1051,724,1435
265181,1109,635,1408
265221,1117,583,1401
265263,1122,613,1393
265302,1174,469,1495
265341,1125,590,1496
265413,1125,573,1482
265421,1155,570,1474
265462,1347,786,1308
265502,1278,903,1301
265563,1191,745,1289
265602,1115,705,1371
265624,1145,909,1375
265673,1053,780,1419
265701,1093,547,1568
265741,1149,181,1531
265833,1175,775,1359
265841,1197,804,1335
265861,1267,821,1273
265901,1276,828,1264
265941,1274,703,1226
265981,1340,578,1382
266021,1127,381,1439
266085,1174,753,1409
266103,1205,774,1402
266141,1263,657,1350
266181,1257,659,1380
266225,1217,714,1354
266284,1178,735,1376
266343,1178,927,1542
266352,1137,973,1572
266394,1028,725,1549
266421,886,583,1526
266494,802,580,1354
266502,813,547,1367
266542,875,615,1388
266582,959,475,1385
266622,922,728,1375
266662,852,1013,1401
266702,836,701,1507
266742,806,668,1449
266782,675,862,1391
266822,362,1446,1383
266885,365,373,1665
266935,328,426,1672
266942,296,495,1650
267004,-26,641,1809
267095,-145,567,1944
267103,-137,546,1947
267112,-138,538,1945
267142,-113,549,1917
267182,-181,398,1885
267222,-293,422,1776
267295,-146,557,1710
267303,-128,557,1726
267342,-31,588,1769
267382,-25,528,1783
267422,-46,596,1806
267462,-65,603,1746
267502,-57,674,1742
267542,-10,544,1755
267582,26,615,1736
267645,-6,659,1787
267665,-4,775,1750
267736,92,907,1726
267745,-462,479,1387
267795,47,490,1688
267852,83,763,1639
267862,54,844,1612
267902,103,887,1683
267942,62,579,1749
267982,69,653,1710
268022,182,859,1700
268087,185,824,1647
268103,296,899,1622
268142,382,862,1700
268182,337,636,1675
268222,217,758,1617
268262,240,699,1618
268302,230,455,1621
268342,206,438,1608
268393,20,733,1746
268434,92,495,1810
268484,106,509,1860
268525,121,395,1828
268545,140,464,1803
268582,175,537,1795
268622,241,515,1741
268662,201,506,1810
268702,63,682,1792
268742,117,1011,1834
268782,244,756,1821
268822,379,866,1808
268894,609,673,1588
268903,605,685,1585
268942,677,668,1509
268982,817,521,1431
269026,920,511,1372
269086,975,196,1436
269135,728,611,1549
269142,708,661,1559
269182,593,754,1705
269222,632,730,1702
269295,886,717,1545
269305,885,713,1564
269342,762,891,1596
269382,665,1025,1698
269422,714,782,1810
269462,939,564,1445
269502,1107,972,1295
269542,967,565,1317
269582,849,420,1380
269622,769,553,1500
269714,1040,284,1516
269724,1119,468,1430
269742,1117,521,1408
269784,1026,636,1364
269822,919,643,1398
269893,767,683,1436
269912,722,680,1486
269943,700,872,1580
269982,708,967,1648
270024,677,887,1711
270073,728,815,1636
270136,869,827,1599
270174,851,850,1582
270212,858,842,1567
270224,790,926,1556
270263,684,1010,1497
270303,673,864,1518
270344,656,857,1502
270384,646,969,1513
270423,569,891,1558
270495,561,872,1494
270504,566,898,1513
270543,562,927,1475
270583,549,951,1488
270624,603,946,1485
270663,646,932,1511
270725,607,936,1561
270775,587,906,1602
270788,593,900,1592
270833,672,919,1575
270873,717,878,1552
270918,815,886,1561
270943,886,567,1415
270983,550,990,1593
271024,520,1097,1575
271064,720,720,1663
271104,795,906,1738
271144,913,656,1531
271183,555,482,1592
271224,242,823,1613
271290,120,830,1586
271305,167,794,1660
271344,638,-1920,2202
271410,318,-188,1307
271424,168,-135,1558
271466,171,522,1825
271516,321,540,1701
271544,298,309,1703
271583,278,425,1739
271624,240,541,1729
271695,276,693,1709
271705,298,659,1721
271744,316,734,1798
271784,211,110,1962
271824,28,-30,1894
271864,20,87,1801
271904,55,3,1729
271944,61,-73,1704
271984,222,57,1692
272066,175,-2,2002
272116,-63,162,2021
272165,-82,169,1980
272174,-37,-43,1867
272183,-26,-45,1852
272226,-26,-53,1706
272263,-51,54,1702
272303,-14,-73,1754
272343,-55,-140,1906
272383,-66,-72,1862
272423,18,181,1938
272486,196,244,1865
272536,193,367,1788
272543,196,335,1780
272583,170,105,1806
272623,88,629,1616
272663,213,691,1691
272703,331,235,1789
272776,370,667,1824
272783,354,674,1792
272830,204,426,1847
272875,89,332,1604
272924,44,940,1332
272943,78,1022,1293
272983,388,929,1472
273023,464,716,1661
273063,482,997,1749
273103,191,1168,1832
273143,234,1013,1832
273183,332,1107,1887
273223,380,1016,1727
273286,389,778,1675
273303,396,737,1621
273344,374,692,1534
273385,358,589,1446
273456,117,904,1609
273465,131,846,1531
273524,176,808,1504
273577,149,540,1427
273586,105,563,1485
273624,106,1075,1753
273664,-43,636,1679
273725,245,793,1811
273744,284,634,1750
273784,254,817,1706
273824,374,758,1627
273864,324,901,1614
273904,260,841,1732
273944,301,904,1723
273984,305,848,1659
274024,285,827,1689
274085,321,670,1511
274105,254,702,1533
274145,195,725,1595
274184,205,849,1538
274234,223,762,1550
274264,210,880,1583
274305,211,851,1492
274370,117,1003,1652
274387,143,947,1632
274423,185,1079,1603
274474,176,1287,1639
274525,550,1104,1462
274574,837,784,1345
274617,1010,474,1174
274624,1013,400,1148
274664,173,1064,1561
274704,124,1604,1576
274744,220,1381,1660
274784,465,1297,1575
274824,504,1049,1522
274888,447,944,1496
274905,554,944,1471
274944,747,1001,1543
274984,619,1464,1694
275024,688,1137,1527
275064,607,745,1548
275116,566,884,1479
275203,553,844,1371
275215,595,769,1295
275224,648,799,1254
275264,727,637,1392
275304,911,415,1431
275354,912,359,1448
275384,642,984,1692
275424,369,1475,1779
275464,650,1117,1809
275504,1081,827,1418
275544,1185,580,1198
275584,1249,154,1099
275624,464,681,1512
275686,625,930,1584
275704,819,666,1534
275767,1070,1059,1268
275845,428,991,1670
275855,405,914,1633
275905,387,1122,1750
275914,376,1272,1750
275944,486,1348,1568
275984,522,975,1548
276025,466,1036,1553
276085,441,922,1497
276104,449,929,1485
276144,460,998,1423
276184,470,1052,1395
276224,517,976,1447
276264,476,1012,1572
276304,434,1145,1558
276344,396,1136,1574
276384,375,1157,1547
276448,488,1054,1476
276496,525,1021,1528
276538,597,920,1556
276578,611,1000,1558
276589,608,1018,1604
276624,641,978,1655
276666,610,1037,1710
276705,567,1006,1644
276746,439,989,1673
276785,418,939,1624
276826,339,930,1627
276895,427,729,1540
276905,422,665,1509
276945,387,646,1469
276985,410,531,1381
277025,367,522,1424
277065,292,606,1403
277126,251,608,1320
277179,696,658,1467
277188,759,746,1465
277239,776,970,1826
277265,769,1090,1853
277329,491,824,1875
277345,449,747,1828
277385,459,653,2016
277425,393,-14,1895
277465,719,812,1411
277505,841,1191,1460
277545,985,975,1549
277585,893,1112,1555
277626,758,1123,1515
277688,508,929,1825
277705,552,566,1715
277745,669,604,1442
277796,434,1126,1633
277837,566,717,1490
277896,697,687,1339
277907,761,687,1250
277946,882,827,1165
277985,988,1007,1319
278025,1025,625,1387
278089,914,961,1423
278105,915,993,1458
278146,974,772,1543
278185,953,901,1511
278226,962,929,1526
278265,990,932,1582
278306,1068,802,1608
278345,1018,706,1467
278385,823,925,1351
278425,595,899,1461
278517,742,620,1480
278526,787,547,1553
278545,754,552,1615
278586,831,748,1548
278655,762,635,1578
278667,786,653,1553
278706,816,594,1535
278746,855,510,1601
278790,880,579,1590
278847,784,790,1629
278896,795,728,1581
278905,774,739,1601
278945,749,720,1544
278987,707,713,1533
279026,710,643,1471
279065,760,621,1563
279105,872,589,1592
279146,831,657,1626
279185,786,512,1652
279225,681,697,1603
279297,682,1014,1462
279305,682,1087,1460
279346,698,836,1450
279385,674,589,1480
279448,486,823,1609
279497,522,556,1667
279539,607,717,1647
279555,601,809,1646
279585,588,925,1630
279625,506,855,1544
279699,475,832,1596
279707,471,833,1587
279745,459,974,1414
279785,438,1058,1427
279826,363,889,1541
279865,323,1048,1496
279906,263,996,1578
279945,208,932,1526
279985,216,922,1498
280027,49,1336,1540
280118,187,669,1533
280128,41,935,1565
280180,-145,1495,1566
280217,-78,960,1729
280230,-82,979,1779
280266,-86,1337,1771
280306,42,1254,1637
280346,28,1041,1582
280386,-92,1120,1653
280426,21,875,1668
280488,4,1071,1790
280506,-31,1066,1771
280546,-37,930,1605
280586,1,867,1513
280626,56,776,1433
280666,79,603,1501
280706,95,735,1519
280776,90,640,1614
280787,94,647,1624
280829,135,702,1628
280879,204,644,1634
280927,263,746,1645
280947,216,754,1626
280986,253,738,1631
281026,256,805,1622
281066,305,856,1629
281106,333,768,1625
281146,300,874,1633
281186,294,942,1605
281226,312,797,1588
281287,379,920,1641
281306,333,917,1641
281346,288,874,1629
281386,221,979,1613
281426,213,886,1578
281470,246,952,1587
281528,241,897,1605
281581,302,813,1636
281588,287,845,1640
281628,369,956,1746
281666,400,916,1831
281738,586,871,1840
281746,621,816,1841
281786,416,620,1779
281826,194,826,1557
281866,48,602,1546
281906,276,616,1579
281946,326,612,1597
281986,328,573,1576
282026,357,494,1627
282091,365,481,1635
282106,359,465,1653
282180,437,726,1676
282187,439,704,1681
282228,495,603,1667
282310,429,685,1742
282318,463,592,1770
282346,528,440,1695
282386,500,520,1723
282426,507,618,1776
282498,488,623,1817
282506,499,676,1797
282546,481,666,1735
282586,443,571,1688
282626,435,555,1605
282666,439,587,1627
282706,541,519,1598
282746,651,304,1591
282786,727,749,1547
282860,609,949,1550
282868,587,922,1526
282906,597,787,1565
282947,540,740,1605
282988,502,933,1628
283038,443,685,1700
283067,415,694,1733
283106,486,846,1648
283177,516,889,1575
283187,500,909,1596
283229,522,967,1587
283266,571,773,1569
283308,573,824,1591
283382,611,726,1541
283391,621,719,1543
283427,624,759,1560
283468,611,840,1565
283508,602,816,1566
283548,569,836,1602
283587,568,860,1561
283627,594,806,1548
283691,587,836,1599
283707,591,831,1596
283790,564,836,1610
283831,586,940,1577
283835,587,946,1598
283880,552,652,1725
283930,596,841,1537
283947,567,891,1587
283987,569,662,1581
284027,577,930,1535
284091,575,854,1637
284107,614,922,1691
284147,740,642,1615
284187,641,913,1684
284227,535,942,1593
284267,603,666,1537
284307,565,491,1443
284347,431,591,1709
284387,525,587,1595
284427,524,634,1542
284552,705,685,1517
284562,607,827,1576
284568,600,832,1579
284620,631,700,1531
284629,606,715,1525
284667,578,848,1569
284707,623,767,1625
284747,578,937,1629
284787,602,1023,1574
284827,533,887,1555
284892,553,964,1490
284907,540,988,1508
284947,541,957,1569
284987,515,950,1599
285027,467,1106,1679
285067,412,978,1608
285107,411,974,1536
285169,424,987,1496
285218,460,972,1517
285228,474,976,1503
285279,501,1033,1482
285366,479,1041,1541
285371,486,1040,1532
285388,494,1030,1525
285427,495,957,1491
285460,468,990,1511
285507,477,944,1509
285547,471,986,1528
285587,442,975,1515
285627,462,968,1500
285694,449,952,1488
285708,474,920,1473
285747,437,960,1495
285787,424,973,1524
285827,430,910,1527
285867,334,1072,1595
285928,308,949,1599
285972,265,974,1562
286021,312,1005,1581
286062,306,977,1576
286067,315,979,1552
286120,316,971,1541
286147,319,1013,1544
286188,331,952,1542
286227,370,956,1580
286267,380,952,1705
286308,270,1188,1663
286347,412,905,1744
286387,405,901,1792
286428,344,905,1683
286499,470,737,1509
286509,488,716,1514
286547,475,671,1509
286608,588,608,1439
286650,507,710,1590
286669,560,672,1639
286708,617,655,1553
286780,648,698,1710
286789,645,663,1719
286829,681,650,1712
286859,640,754,1774
286963,608,524,1481
286973,564,598,1656
286988,530,654,1636
287028,578,542,1635
287068,576,544,1632
287108,586,714,1646
287148,478,771,1582
287188,475,662,1652
287228,471,765,1639
287299,505,683,1666
287308,543,656,1689
287348,531,620,1577
287389,523,672,1709
287428,518,703,1667
287469,468,789,1654
287520,551,645,1669
287571,414,616,1749
287613,404,785,1675
287621,419,765,1684
287669,476,659,1692
287721,440,680,1654
287748,428,726,1625
287789,427,800,1656
287828,467,636,1639
287869,439,744,1674
287908,478,734,1639
287948,463,676,1658
287988,437,752,1684
288029,460,751,1654
288091,443,742,1624
288099,446,730,1644
288149,425,779,1643
288200,450,735,1654
288250,422,778,1692
288302,452,751,1678
288309,443,764,1677
288348,439,777,1646
288389,475,740,1622
288429,506,773,1631
288499,443,822,1636
288510,448,812,1647
288549,422,716,1636
288589,435,768,1685
288629,425,693,1653
288669,464,752,1665
288709,458,702,1622
288749,486,681,1619
288789,516,762,1547
288861,547,711,1686
288910,582,771,1535
288921,599,722,1541
288963,523,832,1618
289009,475,850,1567
289068,478,730,1688
289078,473,789,1701
289109,467,929,1656
289149,419,968,1739
289189,520,656,1648
289229,565,464,1619
289300,543,712,1607
289309,565,703,1615
289349,487,700,1739
289389,639,640,1484
289429,572,759,1550
289460,612,640,1568
289500,624,616,1526
289540,566,700,1661
289598,568,647,1619
289620,551,626,1580
289663,462,811,1419
289750,350,698,1426
289759,346,626,1453
289800,272,623,1465
289820,214,728,1471
289860,44,731,1618
289900,48,644,1727
289940,39,966,1738
289980,131,967,1581
290020,-61,1112,1703
290091,-82,684,1646
290109,-208,552,1633
290140,-300,1376,1683
290180,-224,1253,1469
290220,-307,859,1352
290260,-405,1071,1360
290332,-739,1019,1472
290342,-762,1106,1521
290400,-875,742,1387
290441,-833,1013,1653
290493,-713,587,1544
290500,-699,626,1524
290540,-752,815,1424
290589,-686,818,1319
290629,-684,1003,1292
290669,-782,1128,1461
290709,-695,657,1456
290749,-676,789,1387
290789,-702,861,1457
290829,-705,717,1476
290896,-721,699,1530
290900,-707,695,1498
290980,-719,829,1469
290991,-812,903,1509
291040,-787,667,1582
291061,-759,610,1642
291110,-686,788,1537
291139,-643,925,1503
291182,-670,860,1438
291219,-707,882,1475
291260,-654,1217,1604
291342,-451,897,1751
291391,-303,1255,1450
291401,-275,1166,1436
291429,-71,1065,1514
291469,9,957,1209
291509,308,1277,1382
291549,302,1146,1164
291589,451,935,1149
291629,451,918,1291
291701,520,1092,1307
291710,540,1030,1295
291750,473,1175,1309
291780,543,1406,1238
291820,507,1155,1273
291860,526,1205,1201
291900,403,1382,1286
291941,489,1211,1160
292030,489,113,854
292042,-26,359,1406
292096,-115,1096,1389
292101,-141,1121,1430
292141,-593,948,1884
292180,-479,439,1546
292220,-1101,1280,2016
292260,-858,1013,1811
292300,-670,477,1657
292340,-469,740,1322
292380,-762,510,1230
292420,-1310,708,1254
292491,-1345,648,1368
292500,-1239,554,1315
292540,-1024,751,1166
292580,-1016,683,1304
292620,-1134,843,1486
292660,-983,880,1238
292702,-1046,864,1170
292744,-1106,931,1147
292804,-1090,820,1122
292890,-1090,780,1186
292901,-1055,840,1195
292911,-1053,852,1215
292940,-1037,829,1205
292980,-1025,916,1182
293021,-1052,890,1125
293061,-1078,927,1095
293101,-1075,913,1069
293141,-1089,1003,1046
293181,-1078,974,1042
293221,-1062,1023,1051
293291,-1024,985,1076
293301,-1012,1001,1064
293341,-1059,1008,1120
293431,-1061,989,1053
293441,-1067,961,1061
293530,-1099,1033,1028
293540,-1078,991,1025
293550,-1068,983,1020
293581,-1075,951,980
293621,-1104,1005,972
293701,-1071,953,1010
293711,-1059,978,996
293740,-1045,1046,1000
293781,-1054,1129,1021
293821,-1072,1052,1041
293861,-1111,963,1016
293901,-1132,1017,982
293941,-1120,1002,963
293980,-1106,1066,950
294021,-1085,1101,953
294111,-1094,1007,995
294172,-1112,1023,998
294215,-1115,996,978
294220,-1118,993,985
294230,-1108,989,967
294261,-1118,1028,978
294301,-1107,1021,976
294340,-1081,1024,952
294380,-1106,1054,972
294420,-1117,1011,960
294492,-1113,984,925
294502,-1097,1010,938
294540,-1109,1007,963
294580,-1095,1065,1020
294621,-1053,1092,993
294661,-1077,1079,973
294700,-1116,1030,919
294755,-1156,1026,877
294802,-1125,1036,925
294846,-1095,1095,955
294860,-1071,1095,978
294904,-1084,1118,971
294940,-1090,1143,961
294980,-1078,1194,1027
295021,-1070,1153,1033
295060,-1085,1116,961
295101,-1127,972,883
295142,-1142,850,810
295181,-1223,771,837
295222,-1247,852,1002
295286,-1107,991,1166
295301,-1036,959,1153
295341,-1031,925,1137
295394,-1087,996,985
295442,-1158,949,940
295462,-1178,983,934
295502,-1167,990,952
295541,-1130,998,982
295582,-1107,1019,1017
295621,-1115,1054,996
295661,-1102,1053,1004
295715,-1120,1013,978
295762,-1144,1007,961
295782,-1151,991,942
295821,-1161,969,944
295861,-1174,1011,935
295901,-1172,936,961
295941,-1170,948,967
295982,-1160,952,981
296021,-1152,962,1002
296084,-1143,947,1027
296101,-1148,952,1041
296141,-1185,933,990
296181,-1173,905,985
296222,-1203,859,987
296261,-1193,794,1005
296322,-1157,851,1061
296373,-1138,815,1088
296384,-1158,827,1061
296424,-1168,899,1022
296461,-1189,864,1003
296534,-1188,867,1021
296543,-1194,852,1028
296581,-1183,870,1010
296622,-1201,917,984
296661,-1196,891,1006
296702,-1193,926,1023
296741,-1178,854,1001
296781,-1191,874,1012
296821,-1202,852,1019
296886,-1184,900,1019
296902,-1196,886,1015
296941,-1171,847,1011
296987,-1184,876,1050
297051,-1192,860,1029
297062,-1196,878,1017
297103,-1181,870,1051
297153,-1189,871,1038
297181,-1178,830,1034
297222,-1186,788,1068
297304,-1218,717,1105
297313,-1212,794,1072
297341,-1207,808,1156
297381,-1161,738,1143
297422,-1166,550,1160
297461,-1197,522,1211
297502,-1177,468,1255
297541,-1150,534,1249
297581,-1155,710,1167
297621,-1178,669,1131
297686,-1196,641,1138
297743,-1190,573,1153
297755,-1186,602,1147
297805,-1174,723,1147
297855,-1174,630,1149
297894,-1180,763,1155
297902,-1167,769,1161
297942,-1180,676,1149
297982,-1177,713,1120
298022,-1190,729,1141
298093,-1173,707,1131
298103,-1173,693,1118
298142,-1190,781,1086
298182,-1186,727,1107
298222,-1179,683,1127
298262,-1167,723,1122
298303,-1191,743,1127
298342,-1161,724,1153
298382,-1166,708,1136
298436,-1179,778,1098
298495,-1188,744,1123
298503,-1174,738,1105
298545,-1174,735,1116
298584,-1177,742,1118
298622,-1188,758,1128
298662,-1170,731,1136
298702,-1168,766,1115
298743,-1178,750,1133
298782,-1178,725,1110
298822,-1173,762,1118
298893,-1175,747,1120
298903,-1174,775,1122
298942,-1174,763,1119
298982,-1168,734,1110
299022,-1164,759,1110
299062,-1169,780,1105
299138,-1184,750,1115
299144,-1171,750,1099
299205,-1188,754,1108
299243,-1167,758,1108
299291,-1173,755,1111
299304,-1181,748,1116
299342,-1194,742,1110
299382,-1168,752,1106
299422,-1167,753,1108
299462,-1177,744,1090
299502,-1189,789,1094
299542,-1188,737,1107
299582,-1158,776,1097
299622,-1179,754,1114
299684,-1173,751,1130
299704,-1170,746,1109
299742,-1170,759,1110
299815,-1183,767,1105
299904,-1167,770,1122
299914,-1196,770,1111
299923,-1176,777,1103
299943,-1175,744,1113
299983,-1169,752,1102
300023,-1176,752,1104
300072,-1181,761,1110
300103,-1183,765,1092
300142,-1173,739,1123
300205,-1184,785,1096
300225,-1181,774,1114
300266,-1180,726,1124
300302,-1173,778,1116
300342,-1182,706,1118
300382,-1186,769,1085
300422,-1181,758,1115
300462,-1160,726,1126
300525,-1180,731,1099
300543,-1177,715,1089
300583,-1196,772,1088
300623,-1180,729,1120
300663,-1133,774,1148
300703,-1280,709,1225
300743,-1271,742,1138
300824,-1329,793,1437
300866,-1111,585,1392
300876,-1054,659,1352
300925,-1047,964,1240
300985,-939,977,1251
301024,-941,1001,1254
301033,-925,701,1297
301063,-860,1022,1291
301104,-738,1501,1263
301143,-484,1359,1161
301183,-274,1401,1089
301224,31,1588,835
301286,406,1511,634
301304,434,1332,666
301343,488,1655,426
301383,545,1737,338
301423,575,1851,255
301463,556,1860,260
301503,610,1667,149
301564,578,2069,-36
301617,779,2008,-52
301624,767,1924,-8
301663,688,2026,-50
301705,366,2287,-242
301755,371,1740,-74
301783,208,1755,-131
301824,66,1964,-250
301863,35,1982,-279
301903,57,1892,-291
301943,41,2084,-361
301984,119,2100,-259
302023,206,1857,-132
302086,244,1983,-102
302104,226,2036,-129
302144,250,2067,-122
302184,238,1975,-93
302224,275,1832,-59
302264,240,2059,-136
302357,288,1934,-105
302406,261,2012,-131
302415,282,2019,-141
302423,294,2020,-115
302463,272,2008,-132
302503,292,2021,-107
302555,276,1997,-155
302583,267,2021,-138
302623,284,1964,-105
302663,258,2010,-120
302703,247,2001,-122
302743,243,1996,-119
302783,234,2009,-131
302823,267,1965,-107
302884,271,2022,-159
302967,270,1996,-127
302972,279,1996,-119
302983,275,2012,-134
303027,287,1994,-102
303076,282,2011,-117
303103,261,2047,-134
303143,260,1956,-97
303183,266,2015,-145
303223,260,1958,-127
303285,240,1994,-144
303303,232,1978,-137
303343,242,1975,-111
303383,251,1975,-82
303423,261,2024,-89
303463,281,1960,-80
303503,266,2032,-95
303543,288,2025,-77
303616,243,1995,-143
303625,268,2003,-126
303664,251,1995,-99
303756,249,1998,-127
303767,264,1942,-82
303784,255,1956,-86
303824,270,2010,-107
303864,266,1997,-105
303904,242,2024,-109
303944,253,2038,-56
303984,263,1943,-62
304024,263,1950,-33
304088,242,2039,-53
304104,270,2035,-38
304144,220,2148,-92
304184,137,2070,139
304224,261,1675,243
304264,242,1852,198
304317,217,1978,211
304368,226,1950,200
304386,214,1979,211
304424,204,1977,298
304464,229,1876,319
304518,206,1970,306
304544,186,1997,304
304586,212,1904,253
304625,199,1864,271
304707,256,1912,265
304718,235,1984,271
304774,290,2000,257
304784,286,1985,259
304824,278,1998,269
304864,274,1936,344
304904,260,1831,429
304955,295,1859,436
304984,297,1783,510
305024,333,1837,550
305064,305,1920,550
305104,295,1930,596
305144,303,1761,671
305184,309,1676,798
305224,285,1717,851
305336,258,1544,1063
305345,234,1488,1132
305391,218,1119,1390
305395,232,1066,1380
305438,208,747,1573
305488,280,929,1482
305505,282,1034,1463
305544,257,1156,1554
305584,257,1070,1521
305624,310,935,1605
305696,276,402,1635
305704,244,456,1613
305744,193,552,1690
305784,156,279,1688
305824,152,286,1598
305864,121,375,1524
305904,101,127,1480
305944,-110,363,1570
305984,-184,369,1574
306030,-332,441,1716
306087,-468,863,1799
306128,-535,965,1890
306182,-725,506,1605
306185,-707,516,1596
306224,-740,454,1590
306264,-827,661,1449
306305,-731,628,1497
306344,-767,483,1483
306384,-905,466,1555
306425,-997,447,1360
306495,-1047,651,1373
306504,-1045,566,1359
306544,-989,91,1171
306585,-1376,454,1336
306624,-1595,338,1564
306665,-1386,539,1264
306725,-1217,519,1148
306772,-1207,359,1128
306785,-1233,398,1207
306829,-1219,729,1272
306865,-1262,790,1200
306915,-1279,562,1011
306945,-1325,750,947
306985,-1348,758,940
307025,-1295,637,959
307065,-1271,704,1029
307105,-1243,778,1049
307145,-1273,781,1061
307185,-1269,652,1040
307225,-1273,699,1019
307288,-1295,759,1011
307305,-1270,748,1020
307379,-1246,736,1012
307466,-1253,682,1036
307475,-1243,700,1046
307526,-1268,774,1029
307526,-1267,776,1022
307545,-1266,742,1017
307585,-1284,722,1006
307626,-1270,746,1016
307696,-1258,738,1020
307705,-1280,740,1027
307745,-1257,748,997
307786,-1253,742,1034
307825,-1244,745,1051
307866,-1254,739,1038
307905,-1253,755,1027
307946,-1267,791,996
307986,-1257,754,1028
308025,-1249,768,1003
308117,-1270,761,1012
308158,-1257,751,1011
308166,-1268,751,1006
308205,-1261,765,1022
308226,-1252,761,1011
308268,-1266,757,1010
308305,-1243,758,1014
308346,-1263,775,1014
308385,-1252,768,1010
308425,-1231,767,1005
308489,-1268,757,992
308505,-1276,743,1000
308546,-1272,774,1014
308586,-1262,726,1047
308626,-1264,722,999
308666,-1264,769,966
308706,-1259,829,1003
308746,-1254,761,1022
308808,-1235,854,993
308857,-1233,838,1048
308896,-1245,828,1020
308933,-1191,834,1012
308946,-1212,899,1026
308985,-1218,821,1002
309025,-1218,849,1004
309079,-1209,832,980
309105,-1206,835,1014
309146,-1221,799,1022
309185,-1213,817,1007
309246,-1231,832,1019
309266,-1226,836,994
309306,-1224,836,987
309346,-1219,840,1016
309407,-1228,825,1017
309426,-1228,804,1004
309466,-1242,848,984
309506,-1236,841,1002
309546,-1227,830,987
309586,-1219,864,999
309626,-1233,844,1017
309688,-1217,831,1006
309706,-1220,842,993
309775,-1218,861,989
309829,-1225,836,1012
309871,-1215,849,1001
309877,-1220,838,1017
309907,-1225,819,1036
309947,-1239,838,990
309987,-1216,846,1003
310027,-1217,828,1013
310097,-1210,836,1005
310106,-1220,813,995
310147,-1224,842,1008
310187,-1237,841,1016
310227,-1233,825,1012
310267,-1227,826,1008
310306,-1238,837,994
310347,-1226,831,1003
310407,-1209,842,1011
310490,-1224,830,1007
310499,-1240,831,988
310507,-1233,817,1009
310548,-1220,820,1012
310587,-1233,833,999
310626,-1229,842,1005
310666,-1224,836,1004
310707,-1237,836,1009
310747,-1239,815,999
310787,-1236,825,1003
310827,-1217,829,990
310890,-1237,827,999
310906,-1235,844,1030
310946,-1227,837,1007
310986,-1230,833,1001
311026,-1231,830,992
311097,-1217,829,1006
311108,-1224,849,990
311149,-1224,864,982
311199,-1233,821,982
311226,-1227,810,1008
311266,-1206,851,995
311306,-1222,829,989
311388,-1225,850,1003
311396,-1217,846,997
311426,-1227,835,1004
311466,-1232,842,987
311506,-1230,835,997
311546,-1219,833,1010
311586,-1230,842,997
311626,-1227,816,992
311690,-1209,826,998
311706,-1228,838,1009
311750,-1226,841,996
311799,-1221,836,1001
311901,-1232,830,991
311907,-1213,863,1025
311916,-1221,842,1016
311946,-1211,839,1005
311986,-1224,856,989
312026,-1216,835,1011
312097,-1228,848,995
312106,-1223,857,990
312147,-1238,843,998
312187,-1224,823,1012
312227,-1223,827,1013
312268,-1214,845,1004
312316,-1212,834,991
312346,-1227,844,1021
312386,-1218,832,1001
312447,-1230,833,998
312498,-1228,840,994
312509,-1222,832,1007
312599,-1221,832,998
312603,-1232,844,1006
312627,-1232,843,1000
312667,-1226,836,998
312707,-1240,842,1001
312747,-1222,826,978
312787,-1224,833,1002
312827,-1230,826,1021
312892,-1214,835,988
312907,-1211,832,995
312947,-1232,866,1013
312987,-1214,814,1023
313027,-1235,848,998
313067,-1238,857,985
313107,-1214,816,1010
313160,-1218,846,1012
313211,-1227,822,999
313259,-1206,837,989
313296,-1204,832,984
313309,-1215,849,984
313348,-1220,847,1007
313387,-1214,847,1021
313427,-1234,828,1014
313468,-1249,816,1021
313508,-1225,853,988
313547,-1213,853,991
313588,-1222,863,1010
313627,-1220,861,1003
313698,-1216,841,998
313707,-1232,829,999
313748,-1203,841,1014
313788,-1213,847,998
313828,-1218,854,984
313900,-1218,839,1011
313910,-1228,848,1005
313969,-1215,841,1004
314017,-1226,847,998
314028,-1227,846,1010
314068,-1223,839,1003
314118,-1218,843,1001
314147,-1226,849,1027
314188,-1212,828,1001
314227,-1228,867,997
314267,-1211,851,1004
314308,-1219,828,1014
314347,-1222,844,1003
314387,-1240,840,1018
314427,-1223,839,1004
314492,-1235,844,978
314507,-1238,862,996
314562,-1208,808,1029
314660,-1222,838,976
314702,-1231,826,1016
314710,-1230,832,1008
314717,-1227,842,1016
314747,-1221,835,1009
314787,-1205,848,991
314827,-1228,840,1005
314890,-1226,836,989
314908,-1222,839,1009
314947,-1224,827,1010
314988,-1221,837,997
315027,-1226,837,997
315067,-1225,825,1009
315108,-1218,865,1019
315147,-1223,847,990
315187,-1217,844,1004
315252,-1230,814,1008
315326,-1216,867,1011
315339,-1229,863,999
315349,-1206,845,1003
315392,-1220,847,995
315428,-1227,830,1006
315468,-1231,830,1010
315508,-1224,837,986
315548,-1234,857,975
315588,-1236,819,1023
315628,-1213,825,1014
315692,-1219,836,1008
315699,-1213,848,1004
315748,-1227,827,998
315827,-1227,838,987
315839,-1220,830,1002
315868,-1232,834,1005
315908,-1216,831,996
315957,-1226,854,976
316002,-1235,821,994
316051,-1230,836,1015
316108,-1234,826,999
316118,-1219,832,999
316148,-1219,847,1004
316193,-1225,828,990
316229,-1219,843,1005
316269,-1237,831,972
316309,-1227,856,995
316349,-1228,805,1018
316388,-1228,852,991
316428,-1227,836,1011
316493,-1233,836,997
316500,-1218,839,1002
316549,-1221,837,1000
316589,-1226,836,994
316642,-1242,833,992
316691,-1232,847,1000
316699,-1221,840,997
316742,-1231,831,1002
316781,-1224,834,980
316829,-1219,840,991
316868,-1215,837,1005
316921,-1231,828,1011
316948,-1249,826,1009
316988,-1225,846,991
317028,-1234,836,998
317069,-1223,835,992
317108,-1224,838,1009
317148,-1222,822,995
317188,-1228,855,1015
317229,-1220,823,1009
317291,-1232,844,978
317340,-1219,817,987
317341,-1226,808,997
317380,-1219,821,1012
317422,-1235,853,1013
317469,-1214,845,985
317508,-1208,827,1006
317548,-1231,847,991
317588,-1213,833,1006
317628,-1228,845,1003
317693,-1227,819,1005
317709,-1225,819,1035
317748,-1216,838,997
317788,-1220,834,1015
317829,-1224,826,1008
317869,-1227,828,1001
317908,-1233,819,1006
317975,-1229,825,1004
317980,-1215,819,1003
318058,-1241,841,987
318071,-1232,826,999
318118,-1227,857,1000
318139,-1230,819,1012
318188,-1227,841,978
318229,-1244,848,974
318268,-1241,835,998
318308,-1219,832,1000
318348,-1235,828,984
318389,-1251,855,993
318429,-1226,829,993
318495,-1227,839,988
318500,-1243,838,989
318550,-1219,824,1005
318620,-1205,833,980
318662,-1215,852,997
318664,-1216,861,991
318721,-1219,833,1013
318740,-1218,842,1004
318790,-1220,823,1012
318820,-1232,856,973
318883,-1219,850,984
318900,-1229,844,993
318949,-1225,834,977
318990,-1239,860,990
319020,-1213,859,1008
319069,-1209,830,1022
319109,-1213,872,984
319149,-1226,843,993
319190,-1214,828,1007
319230,-1216,831,1014
319271,-1216,855,996
319322,-1209,849,1010
319369,-1226,864,1011
319381,-1230,850,1001
319432,-1218,842,995
319469,-1221,848,1006
319509,-1239,834,1005
319550,-1222,832,979
319590,-1224,833,1007
319620,-1217,846,982
319700,-1223,834,1002
319710,-1222,829,987
319739,-1229,833,1000
319779,-1233,839,990
319839,-1223,840,988
319861,-1222,844,1006
319900,-1216,827,1000
319941,-1239,842,1012
319991,-1216,863,991
320035,-1226,855,978
320091,-1234,835,1000
320101,-1233,827,1000
320140,-1230,821,1021
320191,-1228,861,1002
320230,-1231,843,999
320270,-1220,833,1014
320310,-1238,833,994
320350,-1212,824,1012
320390,-1218,868,1004
320430,-1227,821,1021
320502,-1214,841,1009
320509,-1220,836,997
320550,-1213,837,1012
320580,-1211,846,1001
320620,-1240,830,1009
320683,-1225,817,1002
320732,-1236,814,995
320742,-1213,835,1016
320839,-1220,831,1002
320849,-1235,824,1010
320892,-1232,836,1010
320901,-1223,843,1024
320940,-1217,812,1004
320980,-1230,849,986
321020,-1230,828,982
321060,-1230,834,1001
321100,-1240,829,996
321140,-1234,846,987
321189,-1219,852,1009
321229,-1219,818,983
321286,-1232,840,1003
321301,-1228,846,1012
321375,-1227,825,992
321381,-1228,828,997
321441,-1224,848,1010
321481,-1216,849,1020
321501,-1219,846,1000
321541,-1242,877,997
321581,-1227,848,989
321621,-1211,834,991
321691,-1217,856,1007
321700,-1212,846,1009
321741,-1212,856,985
321781,-1222,851,979
321821,-1218,873,993
321861,-1223,837,993
321901,-1206,858,991
321941,-1213,863,1001
321980,-1228,855,993
322024,-1216,848,995
322101,-1223,851,985
322147,-1230,859,997
322152,-1232,849,989
322203,-1215,847,1000
322220,-1218,836,1001
322260,-1223,853,989
322300,-1224,850,1018
322340,-1213,861,1017
322380,-1223,863,995
322420,-1209,850,1004
322493,-1211,862,1001
322501,-1222,857,1004
322540,-1223,847,1007
322580,-1230,876,988
322620,-1217,841,992
322660,-1229,834,988
322700,-1216,846,1007
322753,-1214,855,986
322843,-1219,839,1002
322855,-1216,849,1004
322860,-1223,855,994
322915,-1219,841,1004
322962,-1211,865,1000
322981,-1214,866,992
323020,-1205,860,1006
323060,-1230,854,1000
323100,-1224,848,985
323140,-1220,866,986
323180,-1222,859,971
323220,-1232,846,1005
323287,-1223,868,993
323301,-1205,858,1003
323340,-1210,875,1005
323380,-1205,853,993
323420,-1234,847,994
323460,-1221,877,1006
323549,-1207,824,1020
323562,-1211,875,982
323616,-1226,844,999
323620,-1226,841,994
323670,-1219,848,1010
323721,-1213,859,983
323751,-1226,849,1004
323782,-1239,835,1003
323821,-1220,845,996
323863,-1220,829,1001
323902,-1219,848,1001
323941,-1224,861,1003
323980,-1217,853,986
324021,-1221,828,986
324062,-1214,853,996
324101,-1208,851,998
324141,-1223,859,989
324194,-1232,830,989
324243,-1213,853,996
324291,-1217,867,1021
324303,-1222,880,996
324351,-1226,859,984
324381,-1227,885,1012
324421,-1210,854,1007
324495,-1214,882,982
324502,-1224,882,982
324542,-1211,847,987
324581,-1204,861,1015
324621,-1213,876,1005
324661,-1213,864,985
324701,-1215,857,982
324741,-1223,878,992
324781,-1219,864,991
324821,-1211,861,987
324892,-1217,857,997
324942,-1223,867,1007
324989,-1204,871,990
324993,-1219,858,981
325043,-1223,845,990
325087,-1218,845,1006
325101,-1207,866,1010
325141,-1213,854,1016
325181,-1217,870,1004
325221,-1216,839,994
325287,-1226,860,1006
325302,-1219,850,1016
325341,-1216,831,1002
325381,-1221,862,988
325421,-1219,845,998
325461,-1218,844,1003
325501,-1202,858,987
325541,-1211,851,997
325581,-1215,825,997
325631,-1225,849,989
325709,-1218,834,1013
325722,-1217,848,997
325773,-1220,866,996
325783,-1220,851,1008
325821,-1214,843,1012
325861,-1237,862,1000
325901,-1222,854,981
325941,-1221,849,997
325981,-1206,857,1015
326022,-1225,860,995
326093,-1219,855,1005
326102,-1222,846,1017
326141,-1207,862,1009
326181,-1235,857,1005
326222,-1220,859,1011
326261,-1214,849,1003
326332,-1220,870,976
326342,-1216,871,991
326385,-1229,839,1007
326425,-1233,852,1006
326461,-1205,863,984
326514,-1222,847,989
326542,-1229,854,975
326581,-1228,859,991
326622,-1232,849,997
326661,-1220,853,987
326702,-1227,857,994
326742,-1228,850,987
326782,-1223,867,991
326822,-1219,845,993
326894,-1232,872,950
326903,-1223,872,957
326942,-1221,849,990
326987,-1226,875,1002
327045,-1212,858,984
327094,-1220,868,985
327104,-1223,873,999
327142,-1227,848,998
327182,-1234,856,981
327222,-1213,860,982
327288,-1218,861,969
327303,-1213,852,993
327342,-1230,866,986
327382,-1220,863,995
327422,-1211,870,999
327462,-1209,860,988
327502,-1223,856,986
327542,-1216,853,987
327582,-1200,866,987
327647,-1223,876,976
327663,-1229,862,995
327705,-1221,860,998
327771,-1242,868,989
327784,-1230,872,993
327874,-1205,870,989
327884,-1223,886,989
327904,-1228,885,987
327951,-1221,846,993
328015,-1224,859,999
328022,-1221,858,996
328105,-1212,852,998
328114,-1209,861,989
328142,-1215,859,994
328182,-1223,865,981
328222,-1222,850,995
328262,-1210,852,975
328302,-1213,851,1009
328342,-1204,855,979
328382,-1219,895,997
328422,-1203,846,995
328486,-1232,866,984
328503,-1223,869,984
328557,-1227,867,999
328613,-1221,869,1003
328624,-1230,856,1010
328693,-1201,860,994
328703,-1223,878,986
328742,-1227,860,997
328782,-1217,862,995
328822,-1220,853,997
328893,-1207,878,999
328903,-1210,860,1008
328943,-1207,852,1003
328982,-1216,857,1001
329022,-1223,876,992
329062,-1208,884,988
329102,-1214,865,998
329142,-1223,863,987
329182,-1227,843,996
329245,-1214,845,1002
329262,-1223,862,989
329309,-1219,852,1001
329363,-1206,850,995
329414,-1231,871,991
329422,-1229,873,981
329462,-1227,847,1000
329502,-1208,852,1002
329542,-1224,875,981
329582,-1236,850,982
329622,-1225,852,992
329688,-1206,859,1004
329706,-1210,858,1013
329742,-1217,861,1006
329782,-1218,863,970
329822,-1223,870,992
329862,-1225,849,999
329902,-1221,865,985
329959,-1221,860,984
330014,-1213,880,974
330053,-1218,863,980
330097,-1231,883,986
330107,-1217,879,974
330158,-1223,854,999
330183,-1221,874,986
330223,-1215,869,981
330263,-1211,865,996
330303,-1204,873,984
330343,-1212,876,998
330383,-1206,861,1015
330423,-1213,860,990
330494,-1218,862,989
330504,-1217,870,977
330543,-1209,877,1003
330583,-1214,869,979
330623,-1219,856,994
330664,-1212,857,985
330715,-1203,875,984
330817,-1200,846,992
330827,-1206,851,978
330833,-1209,861,993
330863,-1206,866,983
330903,-1202,857,1005
330966,-1222,869,997
330985,-1216,878,1004
331023,-1213,860,1007
331063,-1213,883,979
331103,-1224,847,989
331143,-1224,854,992
331183,-1221,861,1002
331223,-1210,867,988
331290,-1207,863,1005
331305,-1206,862,988
331343,-1214,864,983
331384,-1199,881,993
331443,-1208,871,999
331463,-1204,858,1018
331504,-1216,861,990
331584,-1205,872,999
331627,-1215,879,982
331634,-1215,877,985
331688,-1204,844,991
331743,-1221,868,990
331753,-1214,862,1003
331816,-1205,878,991
331826,-1217,886,970
331864,-1222,875,989
331903,-1215,864,999
331944,-1203,861,986
331983,-1212,880,990
332024,-1213,878,999
332095,-1218,852,992
332106,-1211,851,1023
332144,-1219,866,985
332183,-1218,858,985
332224,-1219,854,1002
332283,-1209,853,988
332327,-1219,879,988
332375,-1216,880,997
332424,-1212,862,1007
332433,-1227,857,1001
332463,-1209,842,997
332525,-1216,876,995
332545,-1208,860,1014
332584,-1206,854,991
332624,-1236,888,955
332664,-1231,837,978
332704,-1224,866,1009
332744,-1209,867,993
332784,-1212,867,995
332824,-1216,852,992
332888,-1215,861,981
332904,-1210,864,989
332955,-1214,853,982
333054,-1222,855,972
333064,-1223,871,976
333074,-1219,868,989
333104,-1220,873,991
333144,-1227,873,1002
333184,-1213,868,980
333224,-1215,858,994
333296,-1214,864,981
333305,-1213,859,1012
333344,-1204,861,985
333384,-1217,859,982
333424,-1208,870,998
333464,-1218,857,1002
333504,-1203,878,979
333544,-1230,863,970
333587,-1212,859,1003
333648,-1224,873,1000
333697,-1206,863,985
333707,-1211,869,996
333788,-1207,863,1008
333795,-1216,870,997
333824,-1203,868,984
333864,-1208,873,1000
333904,-1221,855,1005
333944,-1224,878,988
333985,-1219,857,993
334025,-1213,868,988
334065,-1213,861,991
334137,-1212,849,980
334147,-1205,850,1006
334195,-1222,866,977
334224,-1211,876,987
334264,-1204,854,982
334345,-1206,853,1012
334385,-1217,855,1009
334398,-1203,881,999
334438,-1218,862,975
334464,-1225,859,997
334534,-1209,851,1003
334545,-1208,853,988
334585,-1199,873,987
334625,-1212,860,990
334665,-1221,860,994
334705,-1224,862,993
334745,-1213,876,1002
334784,-1207,859,1004
334824,-1211,854,993
334887,-1223,861,1016
334904,-1242,817,999
334944,-1229,899,973
335001,-1216,873,985
335057,-1204,912,992
335064,-1209,916,994
335105,-1210,836,1003
335145,-1215,868,991
335184,-1224,867,992
335225,-1216,859,975
335265,-1226,871,1003
335375,-1221,860,987
335387,-1224,860,982
335444,-1237,847,976
335454,-1225,860,991
335464,-1208,859,1011
335504,-1207,868,984
335544,-1206,863,1012
335584,-1207,868,997
335625,-1230,875,991
335695,-1213,874,984
335704,-1215,859,992
335745,-1208,862,989
335784,-1201,861,1000
335825,-1219,886,983
335865,-1215,874,1018
335905,-1207,859,995
335970,-1225,888,974
336017,-1222,868,989
336028,-1212,868,984
336118,-1204,866,983
336122,-1209,871,994
336145,-1199,885,990
336186,-1204,889,993
336225,-1210,864,999
336266,-1200,884,1000
336305,-1193,908,993
336346,-1205,841,1047
336385,-1204,890,1030
336425,-1203,853,1002
336496,-1252,865,945
336505,-1252,868,951
336545,-1267,827,928
336586,-1254,861,946
336628,-1235,844,967
336688,-1255,833,993
336737,-1239,802,1003
336779,-1264,801,1017
336786,-1270,803,1030
336826,-1249,734,1001
336865,-1276,791,953
336928,-1227,759,1000
336945,-1207,861,931
336985,-1235,953,998
337026,-1301,747,1126
337065,-1251,804,945
337106,-1279,775,1003
337145,-1248,580,1159
337186,-1373,651,1262
337225,-1603,640,1570
337285,-1779,-120,1721
337329,-1320,318,1620
337348,-1130,632,1502
337429,-436,794,859
337434,-403,775,876
337465,-391,686,984
337506,-569,913,1180
337545,-465,543,1267
337585,-586,728,1457
337625,-621,605,1630
337688,-596,832,1369
337706,-542,940,1420
337746,-421,602,1569
337785,-182,447,1365
337826,27,822,801
337865,194,1861,-249
337905,300,2797,-792
337945,255,2821,-982
337988,283,2480,-770
338037,224,2164,-574
338088,261,1835,-496
338135,307,1545,-298
338179,310,1745,-282
338190,323,1826,-304
338226,336,2044,-390
338265,269,2126,-480
338305,268,2042,-413
338345,280,2058,-326
338386,263,2009,-358
338426,230,2011,-297
338497,285,2033,-192
338506,322,1977,-158
338546,348,1906,-6
338586,354,1922,58
338626,350,1742,185
338666,364,1844,152
338740,202,2210,306
338786,288,1849,404
338798,275,1821,464
338846,213,1649,529
338866,150,1717,550
338939,241,1903,415
338946,214,1935,361
338986,211,2111,388
339026,223,1914,404
339066,239,2035,470
339106,420,1559,319
339146,301,1793,467
339186,210,1909,448
339226,231,1785,479
339296,245,1915,457
339306,261,1871,442
339346,119,1865,410
339440,137,1757,546
339453,113,1725,655
339509,163,1855,664
339520,158,1891,686
339566,113,1641,619
339586,145,1608,604
339626,139,1790,512
339666,116,1762,530
339711,60,1966,666
339747,113,1701,582
339786,134,2082,361
339857,113,1902,257
339867,158,1790,299
339907,59,1929,351
339946,57,1762,317
339986,101,1702,199
340026,109,1774,72
340101,-21,1936,-125
340107,-44,1935,-110
340157,-93,1999,-286
340233,-63,1841,-511
340236,-67,1821,-520
340278,-130,1966,-757
340307,-120,1964,-849
340346,-234,2010,-1050
340386,-228,1936,-1104
340426,-295,2019,-1176
340466,-340,2022,-1077
340522,-439,1734,-810
340546,-526,1683,-755
340586,-562,1760,-729
340626,-601,1898,-682
340666,-563,1847,-673
340706,-897,2020,-940
340746,-683,1582,-837
340786,-596,1738,-919
340829,-678,1786,-957
340868,-701,1747,-952
340949,-650,1769,-909
340954,-662,1769,-910
340986,-690,1764,-875
341026,-669,1798,-928
341066,-667,1759,-868
341106,-690,1707,-873
341146,-708,1639,-860
341186,-723,1729,-873
341226,-718,1733,-869
341291,-739,1713,-835
341306,-721,1737,-804
341346,-733,1737,-812
341386,-740,1700,-770
341426,-736,1702,-748
341466,-720,1731,-792
341517,-742,1708,-793
341598,-746,1742,-794
341617,-731,1764,-808
341626,-736,1794,-859
341666,-709,1805,-873
341740,-743,1712,-798
341749,-752,1697,-792
341786,-770,1696,-748
341827,-776,1703,-749
341867,-742,1722,-758
341907,-750,1725,-772
341947,-748,1736,-782
341987,-753,1725,-808
342027,-735,1741,-792
342093,-752,1727,-777
342107,-753,1751,-771
342149,-762,1679,-730
342212,-750,1766,-774
342276,-757,1732,-770
342287,-757,1736,-782
342307,-759,1734,-777
342347,-775,1696,-787
342387,-762,1718,-785
342427,-780,1764,-801
342496,-776,1690,-722
342507,-771,1679,-720
342547,-790,1706,-687
342587,-782,1710,-712
342627,-791,1722,-732
342667,-774,1724,-751
342707,-815,1720,-777
342747,-810,1718,-737
342809,-782,1715,-740
342821,-773,1709,-771
342872,-780,1773,-765
342927,-782,1696,-730
342981,-770,1691,-689
342982,-772,1702,-709
343027,-784,1755,-732
343067,-772,1736,-758
343107,-758,1754,-787
343147,-764,1738,-777
343187,-759,1726,-865
343227,-751,1792,-813
343298,-773,1680,-678
343307,-788,1680,-686
343347,-764,1688,-666
343387,-777,1768,-709
343427,-782,1737,-732
343467,-777,1742,-735
343540,-779,1736,-750
343548,-771,1746,-733
343591,-777,1709,-713
343649,-782,1710,-720
343788,-781,1722,-741
343798,-772,1722,-752
343807,-770,1740,-751
343817,-790,1722,-758
343827,-769,1730,-740
343867,-779,1717,-750
343907,-797,1717,-730
343983,-789,1713,-742
343998,-774,1712,-739
344027,-790,1710,-738
344067,-765,1734,-753
344125,-770,1723,-744
344149,-787,1721,-733
344213,-791,1722,-741
344231,-784,1713,-744
344350,-793,1711,-749
344358,-798,1723,-718
344368,-780,1709,-750
344411,-772,1717,-742
344501,-788,1714,-755
344510,-790,1712,-748
344511,-785,1719,-743
344547,-786,1720,-747
344603,-789,1715,-746
344627,-776,1721,-743
344667,-780,1716,-745
344707,-785,1707,-752
344748,-769,1726,-739
344788,-794,1726,-761
344828,-779,1701,-759
344899,-756,1746,-746
344918,-747,1683,-746
344948,-810,1662,-732
344988,-819,1897,-726
345052,-754,1740,-730
345069,-782,1638,-735
345117,-767,1576,-734
345161,-715,1697,-792
345188,-745,1831,-784
345228,-780,1836,-740
345300,-815,1726,-650
345310,-808,1689,-619
345348,-786,1704,-652
345388,-762,1763,-704
345429,-759,1731,-720
345468,-782,1724,-712
345509,-803,1722,-701
345548,-794,1788,-686
345588,-760,1772,-633
345629,-773,1605,-554
345732,-775,1811,-610
345735,-766,1807,-623
345740,-760,1793,-615
345799,-789,1709,-651
345841,-778,1759,-717
345890,-773,1795,-735
345899,-772,1797,-723
345948,-773,1724,-665
345988,-798,1705,-684
346028,-799,1685,-725
346100,-779,1716,-740
346110,-779,1725,-749
346148,-770,1749,-718
346189,-822,1741,-696
346228,-814,1685,-696
346269,-802,1744,-739
346308,-757,1742,-748
346349,-776,1748,-760
346389,-796,1710,-748
346443,-793,1696,-717
346491,-833,1700,-724
346532,-826,1709,-732
346570,-826,1728,-742
346582,-815,1714,-711
346628,-791,1729,-731
346669,-805,1724,-730
346709,-829,1658,-730
346749,-819,1683,-710
346789,-817,1700,-733
346829,-793,1715,-729
346900,-796,1723,-709
346908,-798,1720,-708
346949,-805,1730,-706
346989,-818,1702,-726
347029,-819,1694,-724
347069,-809,1715,-748
347141,-803,1725,-728
347181,-815,1730,-724
347191,-804,1720,-714
347238,-823,1688,-732
347290,-803,1690,-715
347332,-797,1703,-713
347341,-795,1728,-714
347389,-796,1731,-707
347429,-792,1730,-662
347460,-792,1728,-696
347509,-799,1722,-725
347540,-808,1722,-715
347589,-806,1694,-743
347629,-802,1710,-721
347690,-791,1717,-708
347709,-805,1723,-720
347750,-806,1713,-724
347790,-795,1728,-716
347842,-799,1722,-730
347891,-797,1731,-723
347901,-796,1722,-704
347942,-794,1725,-707
347980,-796,1720,-699
348020,-810,1727,-698
348091,-804,1717,-700
348100,-810,1731,-711
348140,-803,1721,-696
348180,-792,1710,-692
348220,-816,1701,-700
348260,-810,1726,-682
348300,-807,1726,-716
348340,-803,1715,-675
348380,-796,1702,-687
348420,-828,1710,-691
348520,-804,1730,-695
348524,-813,1732,-687
348539,-805,1714,-684
348580,-805,1728,-679
348620,-818,1715,-687
348689,-832,1718,-687
348700,-818,1726,-695
348750,-800,1723,-700
348790,-797,1735,-688
348840,-793,1730,-656
348941,-809,1688,-675
348949,-829,1706,-692
348960,-820,1721,-691
349019,-808,1711,-697
349030,-812,1694,-688
349069,-803,1704,-663
349109,-804,1720,-645
349149,-829,1759,-646
349179,-834,1752,-624
349229,-815,1738,-638
349295,-627,1610,-641
349299,-704,1687,-669
349349,-791,2039,-774
349389,-742,1777,-676
349429,-699,1509,-489
349482,-795,1360,-583
349533,-899,2304,-1119
349584,-1009,1758,-743
349591,-1072,1757,-663
349629,-1754,1765,-286
349669,-1183,1081,-263
349735,-1271,1627,-397
349740,-1247,1663,-404
349789,-1468,774,-338
349829,-1686,911,-696
349869,-1682,929,-871
349909,-1769,899,-814
349949,-1892,1105,-889
349989,-2030,1155,-1123
350029,-2372,705,-1274
350094,-2586,408,-705
350100,-2544,396,-700
350143,-2122,-64,-566
350191,-1603,-274,-310
350253,-1154,201,-218
350260,-1151,249,-239
350310,-1224,568,-295
350350,-1358,733,-397
350380,-1369,751,-376
350420,-1476,752,-333
350502,-1479,859,-304
350510,-1457,874,-290
350540,-1426,876,-269
350580,-1512,989,-284
350620,-1551,1012,-279
350660,-1587,1022,-249
350700,-1498,939,-235
350740,-1418,966,-153
350812,-1420,1132,-203
350823,-1425,1141,-199
350862,-1401,1161,-202
350924,-1465,1305,-245
350973,-1503,1329,-238
350982,-1559,1338,-174
351020,-1607,1407,-219
351060,-1600,1403,-211
351100,-1593,1425,-292
351140,-1555,1510,-352
351180,-1490,1418,-366
351220,-1407,1336,-290
351292,-1394,1382,-147
351300,-1376,1354,-85
351340,-1218,1197,-3
351381,-1178,1401,-35
351421,-1238,1556,20
351461,-1235,1257,68
351501,-1261,1070,55
351551,-1431,1226,214
351613,-1380,1154,455
351622,-1372,1159,486
351673,-1179,1019,507
351763,-1271,1638,519
351780,-1339,1658,497
351790,-1366,1589,499
351820,-1292,1226,452
351861,-1223,1017,602
351900,-1265,1232,535
351941,-1196,1285,388
351980,-1128,1239,427
352020,-1049,1189,486
352091,-1003,1243,539
352100,-1016,1259,549
352140,-958,1263,501
352181,-845,1169,537
352221,-861,1557,677
352261,-928,1843,666
352313,-918,1439,692
352376,-743,1503,681
352382,-718,1543,671
352464,-720,1733,682
352474,-852,1994,589
352532,-634,1717,453
352541,-613,1675,455
352581,-628,1727,445
352620,-602,1619,434
352660,-853,1594,542
352700,-1049,1802,367
352740,-843,1999,289
352780,-670,1817,213
352820,-474,1670,173
352892,-266,1728,193
352902,-252,1744,190
352940,-171,1652,197
353023,-317,2071,72
353064,-314,2187,-30
353068,-313,2180,-3
353114,-338,2085,-25
353151,-303,2030,7
353181,-330,1876,41
353220,-454,1947,36
353291,-401,2076,5
353300,-375,2081,1
353342,-329,1996,13
353381,-238,1865,61
353442,-171,1754,122
353460,-138,1773,177
353501,-186,1882,188
353540,-216,1986,167
353581,-225,1879,205
353620,-186,1884,214
353696,-312,2252,209
353703,-313,2283,199
353740,-491,2150,249
353780,-504,1538,370
353821,-441,1363,445
353862,-521,1670,428
353974,-539,1739,450
353985,-556,1939,495
353992,-538,2002,505
354082,-569,1788,634
354101,-520,1669,705
354111,-457,1592,745
354176,-397,1513,690
354184,-401,1557,713
354221,-473,1665,724
354262,-462,1693,694
354301,-457,1722,720
354341,-553,1725,695
354382,-609,1824,611
354421,-477,1400,523
354514,-361,1719,561
354532,-311,1721,621
354583,-305,1954,909
354636,-440,1653,867
354641,-434,1605,871
354684,-355,1351,862
354741,-345,1541,847
354753,-362,1571,858
354782,-402,1615,865
354821,-490,1622,888
354861,-532,1717,863
354914,-458,1609,817
354941,-424,1546,787
354981,-379,1591,773
355021,-416,1676,816
355061,-422,1638,812
355101,-443,1675,835
355142,-464,1713,825
355181,-463,1587,831
355221,-480,1313,877
355295,-526,1622,884
355301,-562,1627,876
355343,-566,1564,898
355395,-578,1414,934
355455,-514,1474,976
355463,-506,1470,976
355504,-515,1503,982
355542,-523,1454,988
355581,-474,1416,974
355621,-458,1439,983
355693,-376,1338,1033
355703,-347,1365,1034
355741,-296,1426,1052
355781,-340,1528,1078
355822,-594,1658,1140
355861,-800,1499,1218
355902,-983,1435,1256
355941,-784,954,1001
355981,-625,1063,998
356045,-659,1517,919
356093,-705,1302,985
356102,-696,1297,1000
356156,-556,1260,958
356251,-534,1446,1070
356261,-526,1440,1084
356271,-536,1425,1078
356301,-516,1356,1071
356341,-486,1311,1082
356381,-474,1396,1110
356421,-515,1409,1124
356485,-561,1446,1110
356502,-557,1432,1113
356542,-520,1353,1078
356581,-528,1338,1089
356622,-604,1460,1081
356661,-611,1348,1093
356701,-645,1421,1086
356741,-637,1395,1049
356786,-622,1355,1027
356873,-567,1272,977
356916,-635,1425,1008
356926,-649,1429,1001
356942,-662,1412,1013
356981,-650,1410,1031
357021,-621,1435,1012
357061,-592,1388,1004
357101,-583,1347,1004
357142,-611,1326,1007
357182,-636,1299,1003
357222,-684,1343,1023
357286,-705,1386,1043
357304,-695,1408,1025
357342,-687,1366,1040
357382,-634,1378,1024
357422,-617,1342,1012
357478,-655,1346,1000
357532,-698,1381,1011
357542,-682,1387,1011
357582,-664,1393,1013
357623,-665,1429,1043
357673,-658,1275,1002
357703,-628,1478,989
357743,-640,1562,957
357826,-672,1341,976
357834,-672,1339,968
357887,-683,1306,957
357902,-686,1307,951
357942,-701,1325,976
357982,-722,1330,973
358022,-748,1392,1013
358062,-732,1331,976
358127,-679,1336,972
358152,-682,1307,972
358182,-710,1338,967
358222,-735,1288,975
358262,-823,1373,997
358302,-717,1124,955
358342,-807,1167,942
358382,-740,1236,828
358445,-890,947,844
358503,-884,902,702
358512,-904,625,695
358615,-1552,494,597
358623,-1513,432,598
358632,-1496,355,581
358662,-1464,373,441
358702,-1681,668,282
358742,-1866,682,110
358782,-2160,458,-41
358822,-2372,343,-149
358895,-2179,315,-261
358902,-2154,334,-286
358943,-2015,351,-253
358982,-1943,411,-256
359022,-1893,444,-210
359062,-1829,470,-182
359102,-1819,459,-161
359167,-1898,423,-108
359184,-1946,398,-125
359236,-2001,328,-137
359295,-1966,237,-135
359303,-1974,250,-133
359394,-1951,243,-181
359402,-1919,253,-177
359422,-1911,258,-188
359462,-1882,262,-229
359502,-1833,266,-231
359542,-1816,274,-232
359582,-1793,272,-252
359622,-1770,286,-236
359696,-1809,239,-139
359704,-1791,229,-130
359742,-1841,279,-116
359782,-1844,346,-96
359822,-1844,376,-130
359862,-1860,365,-152
359902,-1889,328,-140
359954,-1908,311,-176
360025,-1902,314,-195
360036,-1896,331,-187
360076,-1898,345,-212
360134,-1859,348,-190
360142,-1882,354,-193
360193,-1882,291,-158
360222,-1893,277,-131
360262,-1893,258,-147
360302,-1886,259,-145
360343,-1895,266,-146
360383,-1885,279,-144
360423,-1870,261,-165
360487,-1850,276,-182
360513,-1857,276,-191
360543,-1847,266,-176
360583,-1836,284,-187
360624,-1840,289,-197
360663,-1852,275,-172
360746,-1851,306,-205
360755,-1847,311,-221
360803,-1835,340,-223
360854,-1873,336,-202
360899,-1859,382,-175
360905,-1852,391,-153
360946,-1814,347,-125
360983,-1865,274,-161
361023,-1927,274,-160
361063,-1944,293,-188
361103,-1929,295,-205
361143,-1901,280,-219
361183,-1856,272,-206
361223,-1852,296,-204
361294,-1864,266,-219
361305,-1871,271,-211
361343,-1836,283,-223
361383,-1809,358,-209
361454,-1874,389,-204
361498,-1897,430,-217
361504,-1897,435,-188
361555,-1964,433,-170
361584,-1871,368,-157
361623,-1786,345,-153
361663,-1771,458,-157
361715,-1791,470,-185
361743,-1801,416,-194
361783,-1841,396,-217
361823,-1809,430,-188
361863,-1803,437,-211
361903,-1805,421,-213
361943,-1822,411,-199
361983,-1878,393,-196
362023,-1921,330,-178
362095,-1875,359,-180
362105,-1870,363,-196
362149,-1841,367,-203
362206,-1840,350,-213
362258,-1866,385,-229
362264,-1871,383,-228
362304,-1898,351,-220
362344,-1871,294,-207
362415,-1875,304,-220
362423,-1887,310,-223
362464,-1880,287,-211
362504,-1875,302,-189
362577,-1875,275,-220
362581,-1891,264,-196
362623,-1865,261,-191
362663,-1859,273,-173
362703,-1844,270,-207
362744,-1874,247,-209
362783,-1828,250,-227
362823,-1854,280,-216
362889,-1837,275,-236
362906,-1867,288,-234
362943,-1872,287,-220
362983,-1870,272,-208
363024,-1875,299,-197
363089,-1860,283,-192
363128,-1881,301,-189
363144,-1886,298,-179
363204,-1881,282,-205
363254,-1869,285,-208
363305,-1860,292,-203
363314,-1864,289,-231
363343,-1851,280,-207
363383,-1869,271,-210
363424,-1888,255,-225
363463,-1876,246,-245
363504,-1864,280,-235
363544,-1855,277,-230
363584,-1846,264,-214
363625,-1916,268,-225
363695,-1840,258,-189
363705,-1835,280,-194
363744,-1849,279,-201
363801,-1905,269,-219
363849,-1909,231,-267
363900,-1855,325,-249
363949,-1806,286,-252
363954,-1824,283,-241
363985,-1839,240,-243
364024,-1927,283,-265
364107,-1905,276,-266
364117,-1872,268,-247
364156,-1827,229,-195
364184,-1792,194,-205
364224,-1778,257,-195
364264,-1860,288,-219
364305,-1917,324,-261
364344,-1903,300,-287
364384,-1897,284,-256
364425,-1900,271,-274
364521,-1812,281,-248
364537,-1726,233,-289
364544,-1752,238,-268
364586,-1800,308,-352
364634,-1847,349,-367
364665,-1898,395,-371
364704,-1910,425,-406
364745,-1894,368,-407
364784,-1862,393,-438
364824,-1907,478,-445
364895,-1799,454,-461
364905,-1788,466,-464
364944,-1781,416,-475
364984,-1813,397,-515
365025,-1934,402,-555
365065,-1950,375,-560
365105,-1956,363,-566
365165,-1994,291,-571
365186,-1997,226,-560
365235,-1982,175,-556
365316,-1945,243,-548
365325,-1858,260,-498
365344,-1842,308,-491
365385,-1767,330,-453
365426,-1739,401,-430
365465,-1758,455,-428
365505,-1834,462,-429
365545,-1810,506,-397
365585,-1849,521,-408
365625,-1904,466,-428
365695,-2000,327,-385
365704,-1996,317,-389
365745,-1846,387,-342
365785,-1853,507,-312
365825,-1905,343,-282
365871,-1948,148,-277
365926,-1873,201,-186
365978,-1871,216,-112
365987,-1874,202,-129
366025,-1906,56,-97
366064,-1835,-20,-29
366135,-1782,225,64
366144,-1782,289,46
366184,-1571,284,189
366224,-1617,-38,173
366264,-1678,345,148
366304,-1811,107,104
366344,-2161,185,65
366384,-1857,130,30
366424,-1665,229,-13
366537,-1955,184,-45
366546,-1954,196,1
366548,-1949,202,-16
366648,-1912,221,1
366665,-1915,144,19
366674,-1913,128,23
366704,-1916,111,0
366744,-1891,175,-61
366784,-1853,318,-21
366824,-1806,223,-6
366896,-1883,115,-21
366905,-1903,117,-18
366944,-1911,200,-36
366984,-1821,212,-39
367024,-1804,212,-21
367066,-1786,219,-6
367106,-1799,273,22
367146,-1913,306,94
367216,-1925,347,78
367228,-1867,399,51
367265,-1872,252,-10
367306,-1912,207,-19
367345,-1942,144,-37
367397,-1928,234,-47
367425,-1902,247,-56
367466,-1856,275,-48
367506,-1840,237,-67
367591,-1846,260,-38
367618,-1846,234,-45
367658,-1848,217,-40
367660,-1891,187,-52
367767,-1812,251,-96
367776,-1818,242,-87
367785,-1813,231,-74
367825,-1824,240,-70
367865,-1823,258,-44
367905,-1824,283,-35
367945,-1848,324,-14
367985,-1856,293,-2
368025,-1854,265,24
368090,-1944,269,-29
368105,-1929,265,-29
368145,-1947,273,-25
368185,-1985,254,-35
368225,-1961,240,-21
368265,-1856,164,-1
368312,-1737,161,18
368357,-1842,301,45
368408,-1721,-102,179
368558,-1910,207,9
368566,-1913,178,0
368575,-1919,154,15
368585,-1935,127,19
368595,-1939,96,36
368625,-2066,92,-15
368666,-1952,95,-32
368706,-1693,154,71
368746,-1795,353,11
368785,-2068,382,-3
368825,-2059,354,35
368896,-1683,260,-6
368906,-1642,236,-53
368946,-1596,214,-154
368986,-1688,376,-189
369026,-1871,198,-233
369096,-2194,-89,-293
369107,-2150,-305,-292
369151,-2112,-168,-286
369206,-2258,601,-410
369226,-2052,788,-305
369266,-1612,553,-203
369326,-1301,217,-89
369346,-1326,166,-105
369385,-1541,303,-118
369426,-1877,550,-102
369466,-1852,454,-113
369505,-1903,488,-110
369545,-1901,249,-96
369585,-1993,261,-67
369625,-1928,316,-55
369690,-2025,276,-108
369706,-1946,255,-149
369746,-1845,159,-217
369790,-1904,300,-243
369838,-1966,466,-283
369865,-2010,483,-314
369905,-1933,407,-203
369946,-1886,357,-184
369986,-1878,346,-187
370026,-1858,345,-182
370089,-1994,413,-156
370106,-2008,490,-104
370146,-1919,348,-87
370186,-1928,179,-109
370226,-1854,-17,-91
370266,-1825,-88,-120
370306,-1733,172,-124
