elapsed_ms,ax,ay,az
105497,174,160,1994
105537,170,160,1976
105576,173,157,1974
105617,165,156,1993
105656,170,155,1987
105696,167,158,1996
105736,168,157,1981
105777,175,158,1989
105816,169,159,1979
105857,172,155,1988
105896,166,149,1986
105936,174,163,1989
105976,163,157,1986
106136,178,155,1993
106146,169,153,1985
106147,174,161,1998
106156,168,158,1988
106176,168,157,1981
106217,173,154,1997
106256,172,148,1967
106297,174,156,1998
106336,167,153,1982
106376,177,152,1982
106416,172,154,1993
106456,169,158,1992
106496,169,154,2001
106537,166,158,1976
106577,166,149,1974
106617,182,156,1993
106732,5,201,1983
106786,320,102,2012
106792,254,100,1983
106799,184,125,1965
106816,110,155,1973
106857,153,146,2006
106897,173,170,1972
106937,150,154,1995
106977,160,155,1992
107017,163,163,1975
107057,175,151,1977
107097,178,159,1996
107137,174,160,1983
107177,167,154,1992
107216,183,156,1997
107256,170,154,1984
107296,175,156,1983
107361,170,164,1979
107407,168,155,1983
107418,167,163,1979
107473,176,160,1973
107497,170,161,1992
107537,168,152,1995
107597,166,153,1988
107617,172,158,1981
107657,164,158,2002
107696,171,160,1969
107736,167,160,1983
107776,167,158,1975
107816,170,151,1997
107856,179,159,1973
107896,172,151,1982
107936,170,159,1998
107976,169,154,1991
108016,162,148,1986
108056,178,155,1986
108096,172,151,1995
108136,175,146,1987
108216,165,158,1983
108269,174,148,1978
108278,173,153,1984
108339,174,157,1978
108347,171,159,2007
108407,172,157,1982
108417,167,151,1984
108456,174,152,1999
108496,171,156,1982
108536,179,154,1981
108576,166,150,2000
108616,170,160,1989
108656,163,166,1986
108696,183,163,1997
108750,170,158,1985
108776,172,152,1980
108816,161,158,1999
108936,162,158,1995
108949,169,151,1981
108958,172,157,1995
109011,173,152,1979
109017,176,154,1991
109056,173,152,1998
109096,170,153,1992
109197,171,150,1985
109216,178,161,1992
109227,164,159,1982
109256,170,153,1991
109296,169,149,1988
109337,171,160,1991
109376,171,152,1997
109416,176,156,1998
109457,176,159,1985
109496,172,151,1975
109598,168,156,1986
109606,168,156,1977
109661,170,157,1989
109668,169,152,1979
109729,178,157,1990
109779,169,157,1989
109787,175,157,1999
109817,166,153,1983
109856,171,156,1996
109897,172,156,1987
109956,166,157,1984
109977,173,152,1982
110017,174,156,1990
110057,175,153,1981
110097,168,157,1969
110137,168,154,1985
110177,183,160,1989
110217,175,162,1980
110257,173,151,1983
110330,169,153,1977
110337,170,152,1981
110387,177,167,1988
110440,167,158,1986
110544,173,166,1992
110556,177,161,1983
110566,166,156,1995
110576,169,161,1989
110616,169,164,1992
110656,178,151,1977
110696,164,156,1989
110749,180,153,1987
110777,170,162,1990
110816,171,155,1985
110868,166,153,1999
110896,170,149,1978
110937,175,155,1993
110976,184,159,2003
111016,169,158,1984
111109,171,151,1986
111118,177,160,2001
111221,181,169,1991
111267,161,159,1987
111278,170,153,1995
111286,164,159,1983
111296,169,155,1990
111337,171,160,1987
111377,169,157,1985
111417,180,152,1977
111457,169,152,1970
111497,166,159,1974
111556,175,152,1986
111577,162,162,1980
111617,169,152,1981
111657,167,155,1986
111696,165,158,1998
111736,174,159,1982
111777,167,155,1983
111831,174,155,1989
111887,180,157,1986
111897,170,158,1985
112000,170,162,1990
112007,178,156,1993
112017,174,163,1988
112056,165,155,1976
112096,176,155,1980
112137,171,165,1984
112177,172,147,1990
112217,168,151,1996
112269,170,156,1977
112297,175,157,1983
112358,178,155,1986
112376,173,154,1994
112417,172,151,1972
112457,171,160,2001
112497,174,150,1979
112559,162,155,1986
112580,167,152,1984
112640,169,162,1986
112699,170,151,1981
112706,165,157,1992
112766,170,155,1985
112776,167,155,1986
112816,164,155,1988
112857,169,159,1982
112896,176,160,1989
112937,174,159,1980
112976,170,156,1980
113017,173,154,1988
113056,167,162,1996
113097,171,161,1992
113151,174,149,1986
113176,174,156,1988
113260,176,149,1968
113266,172,157,1987
113333,166,150,1990
113337,170,160,1978
113397,169,153,1985
113416,172,154,1978
113456,165,150,1989
113497,165,162,1992
113556,168,155,1997
113577,173,157,1989
113616,163,163,1983
113657,172,153,1996
113696,170,159,1991
113737,168,158,1983
113776,182,157,1990
113817,171,152,1983
113856,176,152,1995
113897,169,160,1987
113990,176,154,1985
114000,169,160,1990
114055,169,161,1986
114104,159,158,1991
114117,176,154,1996
114179,178,156,1990
114227,171,151,1994
114230,169,158,1978
114256,170,152,1985
114296,173,157,1978
114349,174,150,1988
114376,168,153,1985
114416,177,160,1981
114456,181,154,1984
114496,165,161,1980
114536,161,160,1987
114576,172,154,1979
114616,173,150,1996
114656,169,162,1985
114696,170,162,1988
114786,163,151,1990
114797,177,152,1977
114851,173,159,1989
114858,173,163,1994
114927,164,153,1977
114936,169,157,1980
114976,164,160,1987
115016,173,156,1992
115056,165,155,1983
115096,163,153,1981
115151,169,157,1981
115176,171,153,1978
115216,167,158,1981
115256,172,159,1985
115296,170,156,1990
115347,171,160,1976
115376,169,145,1989
115446,161,157,1979
115457,171,159,1991
115497,164,160,1987
115612,170,154,1991
115618,170,160,1991
115669,169,155,1988
115679,175,152,1984
115766,166,160,1987
115777,170,160,2001
115786,161,149,1983
115816,171,155,1998
115856,172,153,1976
115896,178,158,1989
115946,167,158,1984
115976,168,153,1986
116016,165,154,1996
116056,172,160,1982
116096,172,158,1974
116136,168,152,1966
116176,179,161,1994
116216,162,150,1993
116256,170,162,1982
116327,164,158,1992
116423,173,156,1985
116426,165,154,1977
116488,171,164,1987
116507,167,156,1975
116516,169,152,1972
116537,171,164,1986
116576,173,163,1997
116617,179,157,1990
116656,166,158,1984
116697,171,154,1983
116751,174,162,1987
116776,173,158,1988
116816,173,159,1990
116856,172,150,1996
116897,162,165,1992
116936,168,152,1976
116977,174,155,1994
117032,172,151,1987
117097,171,159,1991
117149,177,163,1987
117159,166,162,1981
117218,174,152,1984
117227,171,158,1978
117256,171,157,1982
117297,178,152,2005
117337,171,154,2005
117377,173,153,1988
117417,168,156,1982
117457,175,154,1972
117497,168,152,1991
117551,178,155,1973
117577,166,156,2001
117617,167,161,1985
117657,165,154,1986
117696,169,156,1985
117771,169,158,1990
117778,172,152,1975
117830,172,157,2003
117887,167,156,1986
117898,174,164,1998
117960,182,162,1962
117976,165,156,1974
118016,169,153,1990
118056,179,157,1991
118096,178,155,1995
118136,173,159,2004
118176,172,155,1998
118216,170,155,1982
118256,170,154,1986
118296,174,158,1991
118348,173,159,1978
118376,171,153,1985
118442,167,156,1994
118451,164,151,1980
118506,170,160,1982
118570,169,153,1992
118577,167,153,1989
118636,170,164,1989
118656,164,155,1984
118696,172,154,1987
118748,163,150,1991
118776,172,150,1987
118816,169,163,1991
118857,162,158,1976
118897,165,157,1996
118937,172,156,1993
118977,172,158,1988
119016,171,162,1990
119057,176,155,1983
119097,170,154,1981
119151,167,152,1979
119198,169,154,1976
119267,164,162,1979
119277,166,151,1966
119336,167,153,1972
119349,165,165,1988
119396,166,157,1987
119416,166,156,1978
119457,173,156,1992
119497,170,160,1978
119553,174,148,1994
119577,170,162,1982
119616,174,162,1988
119657,170,161,1984
119697,168,161,1990
119737,177,154,1981
119777,169,161,1997
119817,172,160,1985
119857,166,162,1999
119941,163,150,1975
119949,166,156,1989
119977,176,155,1986
120016,166,162,1974
120086,170,153,1991
120096,172,162,1996
120137,171,158,1978
120177,170,150,1983
120242,163,156,1995
120292,169,157,1974
120297,163,158,1980
120357,168,157,1985
120418,170,150,1979
120427,167,155,1991
120456,177,157,1985
120496,170,160,1986
120537,174,151,1985
120576,171,156,1985
120617,162,151,1990
120656,177,152,1989
120697,167,155,1984
120751,167,149,1985
120776,169,156,1984
120816,165,153,1972
120856,166,157,1977
120897,166,155,1975
120983,172,154,1983
120988,170,163,1982
121053,171,153,1984
121056,153,159,1988
121160,174,156,1985
121171,175,155,1991
121219,182,154,1980
121238,174,159,1968
121256,168,163,1992
121296,169,152,1965
121337,169,156,1983
121376,179,159,1978
121417,175,149,1989
121456,174,156,1969
121497,177,147,1987
121553,171,153,1989
121576,168,159,1986
121616,171,151,1992
121656,172,159,1980
121707,167,143,1987
121737,162,163,1988
121789,176,152,1991
121859,167,159,1971
121918,168,151,1991
121927,177,158,1992
121988,163,146,1990
121996,172,156,1983
122016,173,149,1983
122056,169,156,1989
122096,170,154,1989
122136,167,161,1985
122177,176,152,1986
122217,171,155,1994
122256,172,155,1984
122296,171,152,1977
122350,175,153,1994
122376,174,158,1980
122416,172,155,1989
122477,170,159,1977
122532,175,159,1977
122587,164,153,1991
122650,169,161,1991
122657,165,151,1990
122666,168,159,1987
122697,171,155,1980
122757,168,153,1996
122776,164,153,1976
122816,171,150,1994
122856,177,151,1987
122896,169,155,1971
122936,176,158,1986
122976,167,155,1977
123016,169,157,1957
123056,166,156,1982
123096,165,150,1994
123150,173,155,1994
123209,173,159,1985
123261,169,152,1999
123266,180,160,1990
123318,166,163,1975
123377,166,157,1988
123386,165,159,1992
123416,162,159,1986
123456,169,153,1989
123496,163,153,1982
123552,165,150,1988
123576,175,148,1994
123616,167,157,1981
123656,171,155,1985
123696,169,154,1996
123736,171,151,1980
123776,170,154,1982
123816,172,155,1995
123856,176,158,1985
123966,173,153,1989
123977,174,152,1986
124021,167,153,1992
124031,170,151,1988
124086,168,162,2006
124091,168,154,1996
124136,168,152,1981
124176,166,153,1985
124216,169,156,1978
124256,167,154,1975
124296,168,160,1984
124351,175,160,1976
124376,176,162,1982
124417,171,160,1979
124456,168,146,1984
124497,174,153,1986
124536,180,152,1993
124577,172,157,1981
124633,177,153,1976
124658,176,157,1993
124697,168,160,1989
124736,164,153,1975
124786,176,157,1983
124817,177,151,1978
124857,175,161,1988
124968,168,153,1979
125011,172,152,1993
125015,167,150,1978
125021,168,160,1979
125083,170,155,1988
125097,171,163,2000
125153,175,161,1971
125176,170,155,1982
125217,167,152,1982
125257,166,158,1971
125297,167,163,1977
125337,169,154,1976
125377,176,157,1988
125417,169,145,1978
125457,173,152,1996
125497,168,164,1975
125551,168,157,1999
125576,170,156,1981
125638,175,159,1985
125698,163,155,1992
125708,171,166,1993
125795,167,157,1977
125808,169,151,1979
125816,169,159,1985
125857,161,152,1972
125896,173,153,1985
125952,162,155,1985
125976,164,155,1979
126016,171,150,1992
126056,175,156,1981
126096,167,161,1991
126136,167,163,1992
126176,168,158,1987
126216,171,149,1992
126256,166,162,1978
126296,174,160,1998
126350,174,156,1996
126408,171,150,1997
126454,163,157,1985
126501,166,155,1995
126514,178,162,1999
126536,166,153,1978
126576,172,158,1975
126616,178,148,1975
126656,163,156,1973
126696,174,166,1984
126751,167,161,1982
126776,172,158,1985
126817,175,156,1979
126857,177,160,1984
126897,170,159,1980
126937,170,155,2005
126977,169,154,1977
127017,172,166,1992
127069,166,154,1988
127126,176,151,1987
127180,174,158,1987
127187,168,152,1991
127234,168,161,1987
127257,171,154,1987
127297,168,156,1980
127336,180,157,1983
127377,172,166,1982
127417,176,156,1992
127457,173,162,1986
127497,174,155,1995
127549,179,157,1984
127576,174,154,1984
127616,170,156,1990
127657,168,147,1986
127697,171,152,1983
127737,176,154,1970
127808,173,149,1998
127817,167,153,1989
127868,167,158,1992
127927,169,154,2001
127940,165,152,1990
128037,168,158,1986
128047,163,156,1988
128098,166,150,2005
128107,171,150,1988
128136,174,155,1999
128177,178,157,1985
128217,169,150,1984
128257,166,158,1993
128297,175,155,1981
128354,174,150,2002
128376,167,155,1992
128416,173,153,1998
128457,177,155,1993
128496,165,159,1985
128537,167,152,1980
128608,172,164,1976
128617,171,152,2002
128671,176,161,1988
128727,173,148,1993
128787,168,155,1981
128797,173,157,1986
128816,171,157,1985
128856,172,154,1989
128897,168,151,1981
128936,173,155,1979
128976,172,152,1996
129017,172,156,1990
129056,172,146,1982
129097,174,161,1974
129151,169,157,1989
129176,170,158,1979
129216,170,156,1989
129257,171,156,1984
129317,183,159,2003
129337,165,156,1983
129376,168,152,1999
129463,162,154,1984
129469,164,156,1994
129541,167,159,1978
129548,174,159,1987
129608,167,162,1995
129619,168,156,1983
129671,173,162,1975
129696,166,154,1986
129736,175,152,1988
129777,168,158,1984
129816,172,157,1989
129857,166,156,1986
129897,167,153,1996
129950,172,156,1990
129977,165,157,1978
130017,179,162,1986
130057,174,153,1991
130097,168,161,1974
130137,166,152,1985
130177,167,151,1986
130232,179,151,1986
130286,165,154,1975
130340,169,153,1983
130348,167,152,1978
130403,168,150,1983
130417,167,153,1988
130466,164,157,1991
130497,166,154,1993
130537,178,163,1983
130577,170,168,1980
130617,173,166,2000
130656,170,153,1980
130696,174,157,1987
130751,166,155,1990
130776,168,153,1987
130816,176,154,1980
130856,171,158,1986
130896,171,156,1996
130936,175,155,1978
130976,171,160,1993
131088,175,152,1995
131098,167,160,1989
131150,169,153,1988
131207,165,161,1991
131209,170,157,1983
131263,177,153,1991
131310,168,150,1982
131320,169,146,1991
131336,172,158,1996
131376,172,154,1988
131416,168,156,1982
131456,193,133,1998
131496,197,159,1985
131548,163,152,1976
131576,165,158,1991
131616,176,152,1976
131656,178,156,1992
131696,174,154,1986
131736,170,163,1976
131810,174,155,2012
131815,172,157,1986
131869,174,150,1981
131919,174,152,1985
131980,171,157,1987
131987,168,159,1957
132016,178,182,2003
132056,180,162,1993
132097,178,152,1981
132136,171,143,1992
132177,178,158,1979
132216,169,148,2004
132257,161,159,1965
132296,166,156,1984
132350,178,137,2004
132377,168,144,1972
132417,179,156,1978
132456,165,150,1988
132497,180,158,1995
132548,166,143,1970
132598,165,154,1981
132649,174,144,1996
132658,179,157,1962
132716,176,154,1983
132769,171,160,1976
132779,177,155,1989
132817,167,152,1982
132857,172,156,1994
132897,181,157,1973
132937,179,156,1991
132977,171,153,1992
133017,163,163,1972
133057,173,158,1992
133097,176,145,1980
133147,168,152,1990
133176,170,152,1988
133254,172,152,1986
133268,174,155,1983
133319,167,157,2008
133371,168,160,1983
133376,171,164,1994
133417,169,159,1980
133457,175,151,1989
133496,166,149,1985
133548,179,156,1977
133576,173,149,1985
133616,173,156,1984
133656,160,152,1979
133696,173,166,1987
133736,171,163,1996
133776,173,154,1988
133816,172,151,1995
133856,175,163,1984
133918,167,155,1974
133937,177,153,1992
133976,174,152,1978
134017,178,153,1984
134056,174,158,1986
134096,167,151,1970
134137,169,154,1984
134218,173,163,1987
134228,169,149,1997
134279,177,168,1995
134322,176,156,1981
134331,172,152,1981
134398,171,153,1983
134458,169,153,1978
134467,167,156,1977
134496,163,158,1979
134536,177,155,1988
134577,174,151,1990
134617,172,152,1994
134657,167,155,1993
134697,169,152,1994
134749,170,148,1973
134776,170,157,1980
134816,176,169,2002
134857,171,155,1979
134897,176,158,1993
134937,172,158,1974
135018,165,164,1981
135073,174,163,1979
135078,172,152,1990
135142,166,148,1983
135148,166,162,1980
135201,174,161,1988
135219,169,157,1991
135257,172,156,1991
135297,173,155,1971
135337,170,158,1987
135377,172,156,1993
135417,168,156,1992
135457,166,166,2012
135497,171,160,1986
135548,173,145,1987
135576,177,161,1980
135616,173,152,1990
135657,177,167,1988
135697,170,165,1989
135772,170,145,1988
135779,167,160,1985
135837,175,149,1995
135935,174,153,1974
135949,176,154,1991
135961,169,149,1988
136009,171,160,1994
136017,171,153,1993
136057,172,163,1986
136096,169,158,1988
136137,169,156,1984
136176,168,152,1980
136217,162,154,1995
136256,176,159,1993
136297,165,153,1984
136353,171,155,1985
136377,172,164,1982
136416,176,151,1977
136456,169,160,1988
136496,171,157,1986
136569,175,152,1979
136578,168,155,1988
136627,167,161,2000
136681,175,149,1988
136747,169,144,1969
136802,172,150,1983
136806,178,157,2000
136818,168,157,1984
136856,172,156,1986
136897,181,158,1999
136936,157,160,1980
136977,177,162,1994
137016,170,146,1989
137056,170,135,1944
137096,171,146,1997
137157,170,155,1993
137227,169,149,1980
137236,172,157,2000
137289,156,147,1974
137298,178,159,1977
137352,172,153,1994
137449,170,148,1973
137456,167,159,1987
137467,163,150,1984
137496,172,171,1978
137549,169,155,1976
137577,168,144,1964
137617,172,145,2039
137657,174,157,1957
137697,208,142,2016
137737,175,155,1984
137777,176,171,2016
137817,170,153,1997
137857,176,149,1985
137896,172,154,1990
138003,172,150,1990
138008,173,155,1986
138017,168,163,1991
138066,170,155,1975
138132,143,129,1896
138136,193,155,1948
138176,175,151,2028
138216,173,177,1978
138256,159,140,1981
138296,163,150,1977
138346,183,174,2019
138377,172,142,1983
138418,172,169,1990
138486,173,152,1982
138496,166,159,1987
138536,174,160,1983
138577,169,154,1974
138616,163,155,1930
138688,162,147,1968
138699,177,161,1999
138749,170,159,1987
138832,169,155,1983
138848,178,167,2002
138858,167,129,1987
138909,170,155,2018
138936,180,157,1996
138976,167,161,1993
139016,155,149,2001
139056,177,160,1961
139096,165,147,1977
139148,166,148,1981
139176,175,156,1997
139216,160,164,1971
139256,179,148,2007
139296,171,156,1989
139337,172,156,1973
139376,159,133,1970
139454,185,141,2010
139514,162,149,1997
139563,176,153,1976
139578,162,120,1948
139630,176,167,2056
139638,160,120,1971
139656,187,146,1997
139697,164,144,1971
139736,182,156,1984
139777,171,159,2001
139816,173,153,1992
139856,159,132,1928
139897,178,145,2010
139938,187,166,1956
139976,174,150,2000
140017,171,160,1967
140057,165,158,1988
140097,184,152,1988
140188,172,145,1961
140198,172,169,2004
140238,169,165,1979
140258,171,157,1993
140297,169,153,1988
140338,178,152,1984
140377,165,157,1987
140417,175,156,1989
140457,168,164,2007
140496,159,150,1976
140537,158,141,1979
140577,165,158,1978
140617,171,151,1996
140657,171,156,1971
140697,167,160,1997
140738,181,156,1973
140792,165,164,2008
140826,165,146,1982
140881,167,153,1990
140900,198,150,2030
140936,162,138,1980
140976,161,154,1984
141016,166,167,1974
141056,160,149,2001
141096,184,164,2013
141136,170,151,1997
141176,164,151,1947
141216,166,144,1983
141256,176,161,1978
141296,164,144,1999
141336,166,170,1972
141376,166,173,2010
141416,158,145,1940
141491,183,147,1973
141495,177,168,1985
141536,166,154,1996
141577,182,139,1915
141617,153,116,1962
141657,183,159,1970
141697,175,153,1998
141737,170,163,1966
141777,174,153,1996
141817,164,153,1974
141856,163,158,1996
141897,158,147,1974
141936,152,121,1971
141977,167,149,1988
142026,166,161,1971
142067,171,156,1998
142097,167,157,1999
142137,181,182,2037
142176,172,170,1986
142216,174,166,1990
142257,168,154,1978
142296,175,160,1980
142336,157,150,1999
142376,171,159,1958
142416,164,126,1971
142457,176,159,1988
142497,176,161,2010
142537,173,157,1974
142576,167,156,1976
142628,150,150,1938
142651,165,138,1922
142696,173,143,1991
142737,165,157,1982
142806,172,156,1985
142817,172,166,1993
142856,171,151,1981
142898,166,160,1993
142948,174,155,1980
142976,172,159,1994
143017,169,154,1992
143056,162,152,1973
143097,172,159,1997
143136,172,150,1996
143176,173,157,1999
143216,174,153,1972
143257,172,155,1983
143297,174,145,1992
143337,164,156,1999
143376,175,160,1982
143417,171,164,1986
143456,171,160,1987
143496,171,159,2029
143550,170,162,2009
143578,174,156,1990
143617,165,158,1987
143657,168,156,1992
143696,174,156,1999
143736,178,160,1985
143776,168,150,1986
143817,160,164,1987
143856,165,150,1980
143897,178,153,1979
143936,171,149,1978
143977,170,154,1993
144016,171,153,1987
144057,169,159,1982
144096,180,159,1992
144148,173,156,1979
144187,178,153,1979
144221,169,161,1989
144257,168,153,1983
144297,175,175,2036
144336,354,108,2059
144377,249,166,1994
144417,141,177,1969
144457,148,157,2005
144497,174,160,1988
144537,176,154,1982
144577,169,155,1973
144617,165,164,1993
144657,173,159,1996
144696,192,160,1984
144736,176,154,1986
144776,170,159,1985
144817,196,151,2009
144855,228,152,1984
144906,170,156,1978
144937,177,151,1978
144977,170,157,1983
145016,169,159,1979
145056,165,156,1992
145096,168,163,1994
145136,169,158,1984
145176,174,148,1987
145216,165,155,1989
145256,171,153,1984
145296,261,316,2115
145336,203,225,1923
145376,162,159,1996
145429,178,158,1994
145464,163,160,1982
145503,175,168,1980
145555,165,159,1988
145576,168,156,1980
145616,174,162,1991
145656,177,158,1985
145696,173,162,1999
145736,169,158,1982
145776,176,153,1985
145816,171,162,1976
145856,169,162,1982
145896,168,156,1993
145938,171,168,1988
145976,170,157,1981
146016,169,169,1991
146056,175,160,1992
146097,189,235,1856
146140,266,103,1991
146176,155,185,1998
146216,213,193,1980
146256,170,187,2001
146296,155,110,2009
146337,226,458,1911
146376,235,259,1936
146416,195,150,2015
146456,389,68,2129
146496,195,145,2014
146536,79,35,2025
146576,177,-33,2021
146617,294,3,2026
146656,217,156,1985
146708,137,133,2009
146787,163,160,1990
146791,175,154,1972
146837,171,145,1987
146878,170,157,1983
146897,179,155,1982
146936,182,161,1977
147007,104,600,1846
147016,404,297,1750
147056,77,35,1950
147096,-130,-242,2068
147143,203,-356,1850
147177,106,-307,2023
147216,47,-208,1985
147257,9,-164,2008
147296,141,-211,1990
147337,-4,-64,1984
147377,221,307,1981
147417,391,177,1864
147457,130,49,1997
147497,79,-81,1973
147536,-58,-324,1924
147577,385,-164,1904
147617,-90,-286,2026
147678,11,-284,1965
147717,-1,-268,1970
147736,33,-288,1974
147777,116,-283,1979
147817,20,-267,1978
147857,26,-275,1986
147897,24,-280,1975
147936,-19,-268,1974
147977,-24,-289,1973
148017,-54,-296,1997
148057,-47,-301,1989
148096,-63,-316,1964
148136,-64,-312,1989
148176,-54,-297,1971
148216,-37,-305,1963
148258,-44,-309,1991
148298,-43,-307,1970
148338,-51,-249,2057
148387,34,-269,1953
148416,-7,-317,2004
148456,-124,-405,2024
148496,10,-124,1990
148536,-470,439,1107
148576,1043,176,1170
148616,276,138,2188
148656,210,315,1965
148696,188,113,1969
148736,185,183,1975
148776,169,161,1993
148816,148,157,1974
148856,703,269,1688
148917,-24,-203,2023
148946,79,-243,1975
149008,156,-15,1923
149017,-138,-156,2130
149057,36,-260,1963
149097,-55,-284,2012
149135,-20,-287,1982
149177,-21,-290,1988
149217,-25,-280,1983
149256,-20,-280,1980
149296,-20,-285,1976
149337,-17,-286,1986
149377,-20,-288,1983
149417,-25,-290,1983
149457,-12,-276,1978
149496,-27,-296,1989
149559,-15,-256,2005
149597,5,-248,2000
149628,8,-209,1999
149657,16,-169,1999
149696,75,-74,1994
149736,147,8,1983
149776,126,89,1980
149816,227,198,1974
149856,150,130,2000
149896,141,115,2010
149936,157,139,2004
149977,157,161,1983
150016,149,143,1978
150056,154,148,1988
150097,151,143,1987
150159,148,145,1989
150184,152,136,2001
150213,158,141,1980
150257,125,283,2285
150296,163,172,2085
150337,188,145,2014
150376,141,125,2010
150416,153,155,1974
150456,155,139,1999
150497,156,122,1952
150536,160,132,1983
150577,136,153,2006
150616,87,162,2049
150657,125,153,1983
150696,132,146,1997
150758,145,151,1995
150801,143,147,1995
150840,142,143,1990
150857,179,141,1976
150896,176,205,1984
150936,144,91,2041
150977,170,118,1972
151017,141,131,1995
151056,152,192,1933
151097,179,141,1969
151137,166,129,1994
151176,157,148,1977
151217,155,141,1983
151256,165,149,1992
151297,166,121,1952
151336,144,169,2007
151377,165,136,1969
151417,150,156,1996
151457,199,132,1934
151497,167,172,2011
151566,150,152,1981
151577,169,153,1979
151616,157,149,1988
151656,149,151,1996
151699,154,143,1990
151737,152,149,1974
151777,252,126,1971
151816,185,164,1980
151856,195,168,2007
151897,151,113,1953
151937,156,151,1981
151976,158,145,1972
152016,159,159,1970
152056,161,151,2005
152097,137,119,2010
152137,134,129,1992
152177,161,132,1993
152217,142,146,1995
152257,160,168,1951
152298,160,123,2002
152356,173,178,1985
152378,135,187,1992
152417,137,155,1999
152457,151,166,1992
152497,153,140,1982
152537,251,166,2053
152577,122,84,2003
152616,87,166,2015
152656,98,160,1996
152696,151,152,1980
152736,163,149,1989
152776,194,199,1003
152816,32,53,2013
152856,219,165,2020
152896,249,109,2002
152948,178,138,1985
152989,131,143,1987
153027,137,152,1982
153058,153,146,1982
153096,150,147,1982
153147,150,143,1984
153176,154,149,1986
153216,146,142,1997
153256,151,150,1976
153296,147,151,1989
153336,158,146,1991
153376,150,148,1985
153416,157,144,1985
153456,144,155,1992
153496,141,147,1980
153537,149,146,1992
153597,143,156,1998
153669,146,146,1992
153675,162,156,1991
153696,145,154,1983
153736,146,148,1999
153776,150,142,1993
153816,147,150,1988
153856,146,151,1973
153896,154,152,1992
153935,148,143,1986
153976,155,149,1983
154016,147,150,1997
154056,145,151,2001
154096,147,148,1989
154136,150,146,1984
154176,146,144,1998
154217,149,147,1986
154257,153,150,1982
154297,150,156,1980
154330,149,145,1985
154376,143,143,1995
154416,157,152,1990
154457,150,154,1986
154496,158,146,1990
154537,158,147,1988
154576,148,149,1986
154617,155,149,1999
154656,153,145,1985
154696,144,158,1983
154736,153,141,1985
154776,156,154,1985
154828,146,148,1988
154866,143,148,1967
154897,156,145,1989
154938,151,145,1990
154976,140,146,1992
155017,146,150,1992
155056,155,144,1992
155096,157,150,1997
155135,147,153,1996
155177,148,147,1990
155217,152,151,1981
155257,149,150,1987
155297,159,155,1982
155336,151,149,1980
155377,150,150,1986
155417,151,147,1984
155480,162,154,1986
155506,149,151,1991
155545,148,150,1973
155598,146,149,1982
155639,151,153,1985
155657,153,153,1991
155697,152,141,1990
155737,146,154,1980
155777,150,149,1986
155817,149,153,1980
155857,152,152,1985
155897,157,152,1991
155935,154,150,1974
155976,160,151,1990
156016,155,148,1987
156077,145,159,1993
156095,145,138,1992
156136,153,144,1994
156177,155,151,1990
156214,149,148,2003
156274,154,148,1991
156298,147,147,1993
156336,150,145,1983
156376,146,139,1993
156416,155,150,1981
156456,152,148,1984
156496,144,142,1976
156536,148,151,1992
156576,147,147,1988
156616,157,151,2001
156656,146,153,1992
156697,151,148,1989
156737,142,146,1983
156776,152,145,1986
156817,153,155,1988
156858,155,148,1989
156891,152,149,1981
156969,147,150,1989
156977,148,154,1989
157017,155,148,1987
157056,148,150,1987
157096,159,142,1980
157137,151,148,1994
157177,153,143,1991
157216,153,149,2001
157257,152,152,1995
157297,145,149,1981
157337,156,149,1986
157377,148,149,1992
157417,151,147,1994
157457,152,148,1990
157560,155,148,1984
157566,148,152,1986
157601,156,149,1991
157616,156,147,1976
157657,148,149,1978
157697,144,151,1974
157736,152,145,1988
157777,149,151,1985
157817,148,156,1981
157857,158,144,1978
157897,158,149,1999
157937,145,145,1993
157978,153,150,1999
158016,144,154,1970
158056,155,151,1981
158097,145,149,1989
158158,151,155,1999
158177,151,149,1976
158216,149,153,1977
158257,150,147,1994
158296,150,151,1996
158337,147,148,1989
158377,153,147,1989
158417,152,154,1993
158456,152,148,2001
158497,145,153,1985
158536,147,153,1984
158577,158,150,2002
158616,148,157,1986
158657,152,154,1981
158700,144,149,1994
158742,156,154,1975
158777,147,154,1985
158817,149,150,1981
158856,148,153,1988
158896,152,158,1992
158937,146,149,1972
158976,157,159,1979
159017,142,152,1990
159056,153,146,1989
159097,149,149,1997
159136,153,151,1988
159176,144,152,1983
159216,154,142,1974
159256,150,158,1990
159296,150,156,1981
159354,140,151,1999
159394,152,143,1982
159434,148,147,1978
159477,149,145,1978
159497,148,156,1983
159536,150,158,1996
159576,143,148,2000
159616,145,153,1980
159656,147,159,1998
159696,141,148,1979
159737,150,149,1974
159777,150,147,1989
159817,156,151,1984
159857,144,155,1996
159897,147,149,1994
159937,143,158,1981
159976,151,144,1992
160017,152,146,1993
160057,152,152,1987
160097,144,150,1994
160187,153,151,1984
160196,155,148,1991
160216,146,154,1988
160257,153,152,1986
160318,154,145,1974
160356,158,146,1996
160398,143,150,1982
160416,147,162,1988
160457,151,149,1995
160497,149,150,2000
160536,144,145,1979
160576,146,151,1985
160616,154,148,1989
160656,157,148,1982
160696,148,149,1983
160736,145,151,1991
160777,158,148,1995
160816,144,149,2014
160856,152,150,1973
160900,145,153,1971
160939,151,151,1993
160998,153,150,1968
161016,151,143,1985
161056,149,146,1983
161096,145,148,1995
161136,146,150,1989
161175,147,146,1986
161216,160,156,1982
161256,141,147,1986
161296,149,162,2001
161336,151,154,1971
161376,147,148,1992
161416,149,153,1977
161456,149,153,1991
161496,149,143,1989
161538,147,149,1991
161581,146,149,1988
161626,146,146,2000
161666,147,151,1973
161708,141,148,1978
161736,151,158,1987
161776,144,155,1989
161816,152,150,1993
161856,154,156,2000
161896,145,152,1988
161936,145,157,1984
161978,157,148,1993
162016,148,157,1983
162056,146,155,1987
162096,159,151,1991
162137,149,148,1983
162176,156,148,1978
162238,142,151,1989
162259,149,147,1986
162297,143,150,1997
162349,148,152,1990
162376,149,146,1992
162416,155,152,1979
162456,154,149,1986
162496,153,146,1985
162537,154,145,1991
162576,144,141,2003
162617,152,145,1985
162656,155,148,1995
162696,147,148,2002
162737,145,145,1987
162778,153,149,1985
162816,158,149,1986
162856,153,143,1983
162908,140,160,1987
162949,150,160,1989
162988,155,150,1998
163028,145,153,1987
163057,148,154,1974
163097,145,158,1987
163137,149,153,1981
163178,152,152,1986
163217,156,152,1984
163257,156,153,1991
163297,150,148,1985
163337,148,151,1993
163377,150,144,1986
163417,151,154,1984
163457,155,143,1976
163497,145,149,1978
163537,148,148,1979
163577,149,154,1976
163636,149,148,1986
163655,145,151,1990
163699,143,152,1991
163736,151,152,1994
163776,146,156,1982
163816,154,150,1992
163856,152,143,1997
163896,150,151,1989
163936,155,146,1972
163977,144,153,1988
164016,153,151,1986
164056,150,147,1997
164096,154,147,1996
164136,152,153,1993
164176,148,155,1981
164216,148,153,1993
164257,151,154,1976
164292,149,154,1981
164337,151,144,2001
164375,148,153,1978
164417,150,144,1979
164496,149,158,1999
164506,140,153,1989
164536,143,143,1980
164577,140,156,1998
164637,149,154,1995
164656,150,153,1992
164697,150,152,2004
164737,146,152,1982
164777,150,153,1986
164817,156,155,2000
164857,153,144,1984
164896,156,156,1999
164937,145,151,1982
164977,146,148,2003
165017,151,148,1989
165057,149,145,1984
165097,147,141,1988
165137,152,157,1978
165178,151,145,1979
165218,153,150,1989
165278,157,148,1985
165296,149,146,1994
165336,147,144,1996
165377,149,148,1990
165416,147,147,1987
165457,152,152,1992
165496,151,151,1995
165537,150,149,1990
165576,148,149,1996
165617,149,150,1996
165656,152,146,1991
165697,142,147,1988
165737,156,155,1978
165777,148,149,1969
165811,147,149,1981
165860,153,150,1978
165920,146,158,1991
165935,152,152,1992
165972,149,148,1993
166016,148,152,1990
166057,158,158,1988
166096,156,152,1983
166137,156,151,1989
166176,152,149,1985
166217,151,153,1987
166256,164,148,1992
166297,155,147,1986
166336,144,150,1987
166376,152,148,1982
166417,150,151,1976
166457,149,163,1995
166537,150,150,1979
166546,149,161,1989
166577,147,145,1986
166616,150,146,1983
166656,153,146,1988
166697,149,148,1994
166736,143,144,1983
166778,155,142,1992
166816,151,153,1976
166857,152,156,1972
166896,155,146,1983
166937,148,156,1997
166976,147,149,1989
167017,155,153,1987
167079,157,155,1998
167117,151,147,1986
167159,152,146,1984
167221,146,152,1989
167226,148,146,1994
167256,147,158,1981
167296,146,160,1980
167337,148,152,1977
167376,152,149,1988
167416,158,155,2001
167457,148,152,1985
167496,145,150,1993
167536,152,143,1984
167577,147,151,1984
167616,155,150,2000
167656,153,151,1985
167696,153,144,1982
167736,150,149,1984
167778,147,148,1995
167820,147,147,1985
167857,144,151,1989
167896,153,158,2007
167936,144,144,1985
167978,150,149,1990
168016,153,153,1983
168056,152,146,1977
168096,151,159,1977
168136,149,145,1985
168176,151,155,1993
168216,155,155,1980
168256,144,144,1990
168296,158,142,1983
168336,154,148,1984
168377,152,155,1976
168421,149,146,1982
168467,149,144,1989
168499,160,154,1983
168556,157,148,1986
168577,147,150,1993
168616,151,151,1993
168666,157,150,1989
168717,150,153,1987
168736,156,149,1994
168776,154,150,1987
168817,147,152,1976
168870,146,153,1993
168897,153,150,1983
168936,151,152,1998
168976,154,152,1991
169016,150,151,1990
169056,148,146,1990
169096,148,154,1973
169136,151,142,1978
169177,152,152,1988
169210,155,147,1985
169256,153,152,1994
169296,151,158,2004
169336,153,149,1986
169379,148,158,1988
169418,147,144,1987
169477,147,157,1990
169496,158,153,1986
169536,154,153,1985
169577,150,152,1984
169617,146,151,1999
169656,155,151,2005
169696,149,154,1974
169736,153,150,1985
169776,150,150,1994
169816,146,143,1983
169856,163,151,1984
169896,154,155,1979
169937,151,156,1994
169976,149,155,1994
170028,147,150,1975
170078,142,155,1992
170156,149,150,1985
170166,153,153,1990
170177,152,162,1997
170216,151,150,1986
170257,141,152,1995
170296,146,147,2004
170337,152,149,1995
170376,156,148,1991
170416,153,157,2004
170456,157,152,1983
170497,151,153,1979
170536,154,153,1985
170577,149,152,2003
170616,154,157,1983
170657,149,154,1992
170708,154,153,1974
170758,149,149,1991
170799,151,146,1974
170876,144,160,1981
170886,140,146,1977
170897,151,161,1986
170937,151,152,1992
170977,143,151,2010
171017,151,149,1990
171057,154,153,2003
171097,152,152,1981
171137,147,148,1995
171177,144,144,1986
171217,151,152,1993
171257,151,150,1988
171297,150,156,1972
171337,142,147,1998
171407,146,144,1986
171417,159,154,1984
171460,156,156,1987
171496,153,143,1986
171536,144,157,1985
171576,152,144,1984
171616,152,150,1986
171656,163,149,1991
171696,150,149,1978
171736,150,142,1989
171776,151,152,1991
171816,154,145,2000
171856,154,153,1982
171896,153,149,1995
171936,159,148,1975
171976,154,154,1991
172010,151,151,1981
172065,151,154,1988
172096,150,157,1978
172136,154,156,1983
172177,161,149,1997
172217,144,148,1978
172257,151,149,1978
172296,154,157,1988
172337,154,144,1983
172376,148,149,1983
172417,147,148,1972
172457,150,147,1981
172497,152,149,1992
172537,152,143,1988
172596,149,154,1992
172614,149,144,1978
172659,149,159,1977
172696,149,150,1989
172735,157,153,1985
172775,153,147,1987
172815,148,153,1991
172856,157,148,1983
172895,151,154,1981
172936,145,150,1991
172975,154,155,1985
173016,154,151,1989
173055,149,159,1986
173096,155,154,1986
173135,154,152,1982
173175,155,152,1998
173216,146,156,1978
173255,156,156,1986
173298,154,141,1981
173335,149,150,1976
173377,150,150,1981
173416,150,153,1972
173457,150,151,1988
173497,148,146,1992
173536,144,151,1985
173576,149,147,1989
173615,151,152,1989
173656,148,146,1981
173695,154,147,1988
173735,151,151,1996
173776,154,144,1987
173815,147,151,1987
173855,154,151,1987
173895,151,155,1997
173935,145,154,1987
173976,155,153,1992
174027,151,146,1963
174059,144,151,1973
174097,151,158,2002
174135,154,160,1987
174176,143,145,1987
174216,153,155,1984
174256,154,146,1989
174296,151,146,1992
174336,160,157,1989
174376,153,155,1990
174415,148,157,1985
174455,160,158,1975
174495,141,156,1983
174535,149,153,1993
174576,149,147,1976
174638,140,157,1975
174677,127,185,2013
174706,135,144,2069
174738,162,152,2010
174796,151,147,2004
174816,158,142,2003
174855,140,153,1987
174895,167,147,1971
174935,149,152,1986
174975,160,148,1997
175015,144,164,1975
175055,153,148,1990
175095,150,147,1990
175135,151,159,1984
175175,144,150,1990
175215,149,149,1987
175255,155,147,1986
175295,140,145,1981
175357,148,153,1987
175386,139,160,1978
175415,146,152,1986
175455,150,156,1999
175495,147,157,1972
175535,145,150,1991
175576,150,147,1992
175615,145,153,1984
175655,156,151,1986
175695,150,147,1991
175735,147,150,1981
175775,148,154,1981
175815,146,146,1982
175855,146,155,1991
175906,153,147,1988
175972,150,147,1997
175986,153,143,1985
176016,146,151,1985
176055,147,150,1993
176095,145,154,1989
176135,148,147,1981
176175,156,145,1981
176215,154,143,1970
176255,150,149,1987
176295,147,149,1990
176335,149,147,1987
176375,151,149,1992
176415,146,148,1989
176455,155,148,1979
176495,147,157,1986
176532,148,153,1983
176580,146,154,1988
176628,150,154,1984
176656,155,152,1978
176695,145,158,2006
176735,155,149,1993
176775,158,152,1988
176815,148,149,1996
176856,146,150,1997
176895,150,150,1977
176936,154,151,1989
176975,161,154,1993
177016,142,147,1986
177055,149,150,1973
177096,153,157,1989
177135,157,157,1989
177177,150,153,1992
177236,154,150,1995
177256,162,154,1992
177297,153,161,2000
177335,154,154,1987
177386,153,153,1991
177415,144,158,1983
177455,149,145,1985
177496,153,153,1991
177537,153,156,1989
177577,156,151,1983
177616,155,148,1990
177656,151,153,1998
177696,154,148,1989
177736,156,149,1990
177776,149,152,1985
177816,150,157,1994
177856,153,146,1984
177896,151,151,1989
177936,149,154,1982
177975,150,155,1989
178016,152,150,1996
178056,150,151,2002
178116,151,153,1978
178157,154,148,1996
178193,149,160,1983
178234,151,148,1986
178256,151,149,1983
178296,152,160,1982
178336,152,156,1991
178385,146,157,1990
178415,140,148,1992
178455,151,140,1985
178495,155,156,1989
178535,149,137,1987
178575,148,150,1995
178615,148,143,1991
178655,147,158,1976
178695,160,152,1994
178735,151,156,1998
178789,158,143,1993
178840,147,156,1982
178858,153,147,1983
178917,147,147,1988
178935,149,145,1980
178975,156,151,1983
179017,152,149,1994
179057,153,156,1989
179097,147,154,1991
179137,148,144,1981
179177,152,145,1981
179216,148,140,1993
179256,153,157,1994
179296,152,144,1984
179336,149,160,1993
179376,155,147,1990
179416,152,160,1994
179457,146,149,1984
179507,150,157,1987
179538,144,159,1974
179586,149,154,1970
179616,148,153,1993
179656,146,151,1991
179696,156,143,1989
179736,152,150,1993
179776,145,150,1982
179816,139,156,1982
179856,147,146,1988
179896,143,148,1987
179937,148,144,1995
179976,149,154,1994
180017,151,150,1988
180085,157,140,1997
180114,150,147,1988
180136,151,158,1988
180176,156,154,1975
180217,152,157,1998
180257,145,156,1982
180297,150,147,1985
180337,153,150,1994
180376,151,154,1968
180416,150,158,1982
180457,147,154,1984
180497,145,152,1979
180537,153,158,1983
180577,156,148,1990
180617,147,152,1997
180667,145,143,1990
180700,148,153,1979
180736,152,153,1998
180777,148,155,1981
180816,161,153,1984
180857,156,156,1994
180897,153,160,1985
180937,146,153,1995
180977,150,148,1991
181017,144,148,1979
181057,150,152,1982
181097,152,144,1985
181137,150,149,1987
181177,148,150,1986
181217,155,150,1994
181257,146,156,1989
181323,159,155,1981
181338,152,151,1997
181377,148,146,1993
181417,142,154,1995
181456,147,154,1992
181526,139,154,2001
181536,152,151,1985
181577,158,151,1976
181616,155,151,1998
181659,148,156,1975
181696,156,145,1985
181736,152,156,1983
181776,148,145,1995
181817,155,155,2002
181856,149,150,1972
181897,156,159,1977
181937,155,152,1979
181976,146,154,1985
182016,146,148,1986
182057,156,153,1979
182096,149,144,1979
182159,156,155,1982
182183,146,154,1989
182238,157,148,1991
182276,151,155,1998
182296,150,151,1976
182336,148,150,1984
182377,151,151,1976
182416,147,151,1978
182456,156,150,1985
182496,153,146,1996
182536,150,154,1992
182576,145,152,1984
182617,153,153,2002
182656,156,158,1994
182697,148,152,1985
182736,144,155,1980
182793,163,146,1994
182839,131,165,1956
182872,131,145,1914
182908,125,110,1973
182937,165,142,2003
182976,136,143,1967
183017,148,164,1994
183057,171,195,1992
183097,170,190,2076
183137,140,132,1972
183176,83,212,1903
183217,147,175,1987
183257,147,179,1989
183297,141,173,1982
183337,148,171,1969
183377,153,166,1978
183437,149,176,1992
183465,164,164,1982
183498,161,165,1988
183536,163,171,1991
183577,140,148,1982
183617,148,174,1976
183657,148,161,1998
183697,156,166,1979
183736,152,165,1975
183776,155,170,1978
183816,159,177,1994
183856,147,166,1996
183896,145,171,1984
183936,157,162,2006
183977,143,161,1991
184039,147,165,1993
184079,158,172,1978
184104,146,172,1971
184136,149,176,1994
184176,158,173,1983
184216,156,164,1983
184256,163,169,1982
184296,152,172,1987
184336,151,171,1983
184377,150,177,1979
184416,152,171,1993
184456,148,172,1989
184496,149,171,1986
184536,144,170,1981
184576,152,177,1973
184616,149,174,1991
184657,164,172,1974
184718,155,169,1974
184737,153,168,1989
184778,156,177,1971
184816,154,172,1974
184856,156,171,1976
184896,155,166,1980
184936,156,170,1974
184976,156,171,1987
185016,160,165,1997
185056,147,170,1994
185096,158,164,1981
185136,154,174,1991
185178,143,168,1978
185216,157,177,1972
185259,153,171,1989
185295,156,170,1986
185337,155,176,1990
185376,161,168,1995
185417,159,171,1991
185456,161,159,1990
185497,157,166,1983
185536,159,168,1989
185571,157,174,1999
185616,160,168,1991
185657,163,169,1979
185696,155,175,1990
185737,163,168,1986
185776,154,171,1978
185817,158,171,1974
185856,166,166,1965
185898,156,171,1984
185936,164,172,1983
185978,154,165,1986
186017,158,172,1979
186066,160,165,1981
186096,160,167,1995
186137,163,165,1981
186195,158,172,1995
186236,154,163,1983
186257,162,166,1978
186299,174,167,1988
186336,165,163,1994
186376,163,167,1990
186417,155,174,1978
186457,151,171,1995
186497,154,169,1986
186537,157,170,1984
186577,151,168,1987
186617,161,166,1995
186657,162,172,1987
186697,157,168,1981
186737,163,180,1985
186800,165,172,1981
186816,165,163,1988
186859,165,172,1992
186897,159,170,1978
186945,152,167,1985
186976,153,168,1984
187016,162,173,1978
187056,159,162,1993
187096,158,165,1985
187136,157,167,1988
187177,159,163,1991
187216,159,170,1976
187256,157,160,1976
187296,154,161,1974
187336,154,168,1989
187376,149,169,1988
187416,156,167,1987
187456,164,167,1977
187516,164,167,1971
187558,164,176,1977
187618,159,175,1990
187628,159,167,1981
187669,155,170,1983
187697,157,181,1993
187737,166,168,1981
187776,154,178,1996
187817,162,177,1976
187856,152,175,1979
187897,155,175,1981
187937,158,175,1988
187977,167,174,1984
188016,157,164,1999
188057,160,168,1993
188097,157,178,1980
188137,167,173,1986
188200,159,166,1975
188229,158,168,1980
188255,161,171,1989
188297,149,173,1985
188337,156,175,1990
188377,147,169,1993
188417,151,168,1991
188457,153,175,1985
188497,160,172,1996
188537,155,170,1979
188577,156,166,1993
188617,156,159,1988
188657,156,170,1998
188697,152,172,1999
188737,151,172,1983
188777,150,172,1992
188834,152,166,1990
188877,159,173,1983
188896,160,174,1988
188936,153,178,1988
188977,160,160,1987
189017,157,168,1978
189057,166,174,1978
189097,159,169,1990
189137,154,166,1984
189178,154,169,1989
189217,153,172,1996
189256,155,173,1996
189297,160,170,1992
189336,149,169,1987
189377,157,175,1987
189419,160,162,1971
189459,164,169,1995
189497,160,174,1989
189536,146,171,1981
189578,161,170,1985
189617,157,172,1986
189656,162,173,1982
189697,159,166,1990
189736,155,177,1979
189776,161,161,1989
189817,162,169,1981
189856,162,163,1966
189896,159,171,1989
189937,164,167,1981
189970,166,173,1989
190017,156,167,1970
190066,162,166,1982
190096,157,168,1985
190136,152,161,1979
190210,166,168,1984
190217,163,171,1975
190256,151,168,1986
190297,157,164,1993
190336,164,175,1982
190377,158,165,1971
190417,164,168,1988
190458,158,170,1986
190496,161,172,1988
190537,161,176,1985
190576,160,171,1987
190616,167,170,1984
190657,159,168,1989
190696,159,167,1988
190737,157,169,1990
190778,162,163,1978
190817,161,174,1991
190857,163,172,1985
190896,159,166,1979
190936,151,171,1974
190989,163,169,1986
191019,162,166,1988
191068,156,172,1979
191096,169,167,1986
191136,157,169,1984
191178,165,166,1987
191216,157,166,1978
191256,165,176,1992
191296,163,172,1980
191336,163,175,1992
191376,173,165,1983
191416,155,170,1995
191456,160,171,1988
191496,160,159,1994
191536,159,171,1988
191580,165,166,1986
191617,163,167,1983
191657,164,163,1992
191730,155,172,1974
191738,160,166,1983
191776,157,173,1976
191816,156,165,1987
191856,161,166,1989
191896,157,176,1989
191936,160,168,1980
191977,153,173,1992
192016,160,164,1990
192056,154,170,1980
192096,156,171,1990
192136,168,169,1990
192176,166,170,1972
192216,165,169,1988
192278,157,172,1979
192316,158,162,1978
192347,161,169,2000
192387,159,173,1990
192416,157,171,1998
192456,165,165,1985
192496,161,179,1982
192536,165,168,1983
192576,156,168,1985
192616,164,172,1982
192656,162,169,1988
192696,165,171,1996
192736,161,162,1973
192779,158,171,1991
192816,159,167,1987
192856,167,166,1974
192918,159,172,1985
192966,161,170,1990
193000,166,171,1981
193036,165,170,1987
193056,151,167,1970
193096,157,175,1973
193136,154,169,1988
193176,160,171,1990
193216,159,169,1987
193256,161,167,2000
193297,158,169,1980
193336,160,167,1982
193377,160,168,1998
193416,162,170,1999
193457,154,179,1975
193496,165,170,1978
193559,164,166,1988
193576,155,176,1988
193617,158,175,1977
193667,174,173,2000
193697,164,173,1996
193737,165,174,1981
193776,157,174,2000
193817,162,158,1997
193856,159,167,1997
193897,162,170,1976
193937,161,165,1982
193977,159,169,1994
194017,166,176,1984
194057,165,170,1974
194097,164,174,1985
194137,153,175,2000
194177,165,168,1984
194239,160,170,1971
194287,158,167,2003
194318,168,169,1977
194347,159,167,1995
194377,167,173,1986
194417,153,167,1989
194483,168,173,1987
194496,153,176,1999
194536,164,152,1987
194578,161,168,1986
194640,166,172,1993
194655,161,165,1982
194696,158,163,1975
194736,162,166,1987
194786,154,169,1983
194816,160,166,1990
194856,164,188,1983
194896,136,176,1990
194936,185,166,1982
194976,218,158,1964
195016,172,164,1980
195056,157,173,1987
195096,157,165,1989
195160,158,164,1989
195197,160,162,1999
195217,156,163,1987
195257,161,163,1989
195309,153,168,1988
195336,161,170,1998
195376,155,173,1992
195417,154,165,1994
195457,160,166,1994
195497,163,170,1985
195537,155,162,1987
195588,159,171,1981
195616,158,169,1984
195657,162,157,1997
195697,158,162,1987
195737,166,162,1990
195777,160,167,1985
195817,168,164,2002
195858,165,168,1987
195919,154,166,1985
195986,184,171,1976
195990,198,160,1977
196032,173,155,1985
196078,161,148,1986
196096,157,171,1993
196137,153,169,2004
196177,155,167,1990
196217,167,169,1993
196257,161,166,1995
196297,159,171,1974
196337,157,168,1980
196378,163,169,1967
196417,158,164,1985
196456,163,164,1975
196496,153,166,1987
196537,162,162,1985
196600,171,164,1978
196638,188,122,1994
196656,161,254,1979
196697,136,170,2004
196737,158,157,1982
196777,152,170,1993
196817,165,177,1990
196857,137,163,1995
196896,172,199,1972
196937,136,166,2000
196976,103,166,1987
197016,115,172,1999
197057,142,175,1966
197096,142,176,1975
197137,141,163,1994
197171,155,168,1978
197211,127,193,2012
197258,107,197,1984
197299,118,185,1995
197347,139,182,1983
197377,136,185,1992
197416,127,174,1976
197457,138,180,1991
197496,137,174,1990
197536,123,173,1988
197578,136,184,1982
197617,147,175,1978
197656,149,183,1992
197697,165,196,2000
197736,167,173,1992
197777,154,168,1983
197817,165,162,2001
197869,148,170,1988
197956,129,185,1974
197966,158,164,1998
198008,145,164,1970
198018,174,172,1992
198057,166,167,1991
198096,166,177,1981
198137,123,182,1984
198176,143,195,1985
198217,157,178,1987
198256,135,179,1985
198296,132,199,2003
198337,135,176,1979
198371,158,179,1985
198416,128,177,1985
198457,155,173,2004
198528,129,190,1984
198568,124,174,1983
198577,117,187,1975
198617,134,182,1989
198657,116,178,1992
198697,115,179,1962
198737,122,170,1981
198778,136,183,1992
198816,139,176,1977
198857,162,186,1962
198896,127,175,1985
198944,119,180,1991
198976,154,187,2004
199016,99,201,1984
199057,138,173,1991
199100,177,184,1997
199138,171,174,1915
199180,134,182,1976
199227,129,173,1970
199278,119,173,1976
199296,109,217,2009
199336,137,165,1980
199376,134,187,1991
199416,97,177,1952
199456,156,171,1999
199496,129,179,1977
199536,129,174,1982
199577,125,175,1978
199616,131,162,1981
199656,126,189,1990
199696,128,181,2003
199736,143,187,2010
199776,128,183,1956
199810,130,176,1978
199857,111,177,1961
199907,124,179,1983
199936,171,155,1980
199977,111,194,1989
200016,152,181,1999
200056,99,183,1974
200096,104,185,1989
200136,129,179,2019
200176,116,184,1994
200216,175,159,1963
200256,219,155,2011
200296,154,170,1989
200336,121,83,2001
200372,131,211,1973
200416,173,165,1967
200457,149,164,1988
200497,164,171,1993
200538,148,117,1994
200582,181,188,1974
200616,157,153,1997
200656,144,167,1972
200696,152,175,1985
200736,141,173,1986
200777,111,181,1987
200811,177,155,2059
200856,121,191,1997
200896,120,182,2008
200937,109,179,1987
200976,125,183,1990
201017,123,179,1988
201056,114,182,1995
201120,114,189,1995
201138,123,181,1992
201200,120,181,1993
201242,115,183,1984
201257,117,177,1994
201297,123,190,1982
201337,123,174,1985
201377,123,182,1987
201416,120,183,1972
201457,119,183,1989
201496,121,186,1998
201537,121,178,1984
201577,121,183,1993
201617,119,177,2000
201657,126,181,1982
201697,132,176,1988
201737,120,181,1981
201777,121,182,1986
201830,128,180,1973
201878,122,180,1989
201911,114,182,1981
201937,125,179,1989
201978,115,172,1987
202017,121,175,1983
202057,121,180,2000
202097,133,184,1987
202137,119,179,1974
202177,122,183,1988
202212,124,190,2000
202257,123,179,1980
202297,117,180,1975
202337,118,178,1983
202378,104,178,1990
202416,124,191,2000
202451,114,176,1985
202500,119,186,1971
202548,126,183,1973
202576,119,178,1980
202616,121,184,1988
202656,120,185,1984
202696,125,172,1976
202736,129,189,1980
202786,109,186,1978
202816,123,184,1984
202856,126,180,1987
202896,122,177,1986
202936,120,183,1984
202976,123,179,1993
203016,116,177,1999
203088,131,178,1987
203097,125,186,1993
203137,120,176,1988
203176,121,181,1983
203247,139,175,2004
203256,95,190,2012
203296,114,184,2002
203337,115,187,2009
203381,106,182,1993
203419,119,185,1973
203470,122,178,1994
203496,123,174,1981
203536,128,177,1988
203577,128,179,2002
203617,134,176,1986
203657,127,181,1990
203697,129,189,1975
203737,131,179,1992
203777,121,179,1992
203817,108,184,1988
203857,134,185,1992
203897,123,179,1989
203937,116,182,1971
203977,122,187,1988
204016,138,183,1988
204061,128,180,2000
204105,101,186,1989
204136,118,187,1987
204177,121,183,1989
204217,125,189,1968
204256,115,178,1994
204297,100,183,2001
204337,113,190,1986
204376,154,210,1999
204416,103,187,1988
204457,114,188,1985
204497,159,193,1977
204537,120,178,1981
204577,111,172,1979
204617,116,189,1973
204678,119,182,1988
204737,118,186,1992
204748,100,184,2001
204793,109,182,1969
204816,103,177,1982
204857,110,176,1989
204896,115,184,1998
204937,114,187,1998
204976,117,183,1992
205017,129,204,1968
205056,110,168,1994
205097,102,178,1990
205136,127,177,1987
205176,115,183,1989
205217,110,181,2009
205257,121,171,1981
205322,121,174,1989
205358,108,181,1988
205376,109,186,1993
205417,113,182,1990
205456,110,185,1988
205497,117,181,1985
205536,114,186,1969
205576,110,184,1987
205616,111,180,1973
205656,168,162,1953
205696,108,201,1958
205737,45,149,1992
205776,182,91,1992
205817,154,170,1973
205856,132,184,1973
205902,123,178,1994
205931,131,169,1990
205977,140,174,1975
206016,142,173,1984
206056,138,165,1991
206097,138,174,1991
206136,140,176,1985
206177,130,176,1988
206216,147,172,1996
206256,191,110,2024
206296,143,78,2018
206336,175,224,1989
206376,214,132,1994
206417,122,171,1989
206457,128,172,1989
206497,141,177,1987
206552,183,136,1969
206576,-45,300,1957
206616,146,192,1985
206656,130,178,1993
206697,134,172,1979
206737,128,176,2002
206776,134,172,2000
206816,123,186,1973
206856,132,177,1980
206896,125,182,2000
206936,131,161,1994
206977,147,164,2011
207017,132,186,1999
207056,140,159,1993
207098,122,172,2008
207136,111,184,1974
207188,129,166,1987
207217,134,161,1979
207256,138,115,1967
207296,114,245,1979
207339,127,169,1990
207376,170,215,1988
207416,133,191,1974
207466,84,153,1934
207496,139,147,1982
207536,261,163,1962
207576,128,149,1988
207616,160,175,2005
207656,-325,259,2101
207696,140,189,1993
207736,111,169,1994
207776,132,182,1974
207816,140,166,1990
207856,129,161,1989
207896,151,170,1992
207936,138,164,1979
207991,144,165,1985
208037,143,166,1985
208081,154,175,1993
208096,125,176,1986
208136,141,178,1976
208176,153,186,1975
208216,128,193,1981
208256,196,134,1980
208296,147,136,1963
208336,237,125,1964
208377,630,137,2039
208416,298,98,1968
208456,-356,162,2071
208496,-476,309,2021
208536,-83,188,2014
208576,219,184,1984
208619,314,144,1981
208660,154,134,1991
208718,170,179,2001
208757,160,159,1982
208777,148,161,1975
208816,159,161,1990
208857,156,169,1983
208896,152,177,1988
208936,160,172,1984
208977,157,171,1980
209016,157,166,1989
209057,151,164,1986
209096,157,169,1986
209137,157,175,1995
209176,152,166,1985
209217,150,158,1981
209267,161,160,1989
209298,159,161,1987
209338,152,166,1985
209377,156,161,1981
209416,156,165,1986
209457,30,252,1950
209497,134,204,2027
209537,154,165,1988
209577,188,207,1987
209617,116,159,1975
209668,71,273,2004
209697,158,199,1977
209737,100,177,1997
209776,168,144,1989
209817,167,119,1968
209856,159,168,2007
209899,169,171,1967
209938,137,186,1979
209976,167,169,1989
210017,140,184,1984
210064,188,160,1977
210096,232,142,2011
210136,193,166,2018
210176,166,171,1991
210216,154,167,2009
210256,148,175,1987
210296,134,181,1992
210336,134,187,1979
210376,135,180,1982
210416,156,185,2008
210467,142,173,1960
210510,135,183,1988
210558,133,177,1981
210588,135,181,1992
210616,138,188,1972
210656,138,177,1983
210696,128,187,1988
210736,151,174,1975
210776,142,175,1994
210816,135,180,1975
210867,139,181,1986
210896,139,176,1973
210936,139,180,1983
210976,146,176,1979
211017,149,179,1981
211057,144,184,2001
211097,137,193,1982
211140,139,178,1986
211178,141,179,1978
211217,131,180,1984
211276,147,176,1979
211296,129,182,1979
211337,136,177,1983
211377,136,177,1973
211417,131,179,1982
211457,142,179,1991
211497,139,178,1978
211537,138,182,1987
211577,137,186,1985
211617,142,178,2000
211667,151,179,1995
211697,149,177,1984
211748,151,184,1982
211777,143,174,1985
211817,142,181,1988
211857,144,175,1979
211910,133,185,1983
211937,145,179,1992
211977,138,177,1991
212017,139,175,1984
212078,167,169,2005
212112,139,185,2007
212153,139,182,1979
212177,138,177,1989
212216,144,183,1988
212257,157,168,1977
212297,149,170,1982
212337,148,176,1980
212377,126,171,1966
212417,133,186,1990
212456,125,183,1987
212507,139,174,1995
212537,140,182,1992
212576,137,182,1992
212617,140,178,1990
212656,142,183,1993
212698,149,180,1990
212758,142,175,1973
212796,133,179,1990
212826,129,175,1973
212857,145,185,1986
212896,143,179,1980
212938,138,195,1986
212976,134,190,1986
213017,134,192,1996
213056,127,176,1997
213096,137,176,1984
213137,142,173,2004
213176,129,177,1973
213216,136,180,1984
213256,132,171,1990
213309,142,178,1990
213344,137,185,1966
213379,142,181,1996
213416,142,173,1992
213456,154,174,1999
213496,149,168,1991
213537,143,175,1988
213576,152,181,2000
213617,149,170,1993
213656,131,180,1976
213709,150,175,1990
213736,151,175,1979
213776,148,172,1988
213816,127,179,2011
213857,152,167,1986
213897,129,179,1980
213938,145,179,1977
214000,139,183,1995
214016,131,175,1989
214056,146,176,1997
214096,139,179,1977
214138,139,183,1985
214176,119,211,1998
214216,135,180,1974
214257,163,166,1998
214297,198,179,2020
214337,151,171,1979
214377,155,172,1974
214417,149,179,2001
214457,145,177,1974
214542,143,170,2001
214546,129,179,1981
214580,139,176,1993
214619,146,182,1978
214657,141,178,1989
214697,143,176,1985
214736,139,184,1981
214776,136,184,1978
214816,150,181,1984
214856,140,181,1978
214910,149,174,1969
214936,146,180,1983
214976,143,176,1983
215016,145,182,1996
215056,125,194,1995
215096,137,183,1995
215158,141,182,1997
215188,139,184,1968
215228,132,185,1980
215256,137,181,1990
215315,144,181,1978
215338,148,180,1977
215376,140,176,1993
215416,152,184,1979
215456,149,171,1990
215496,146,178,1993
215536,140,167,1992
215576,150,172,1978
215616,144,174,1984
215656,133,174,1981
215708,149,173,1983
215736,152,171,1977
215778,143,180,1984
215820,143,173,1991
215856,168,155,1929
215897,139,171,1987
215972,158,166,1987
215979,163,173,1980
216016,174,169,2003
216056,179,158,1980
216125,173,163,1990
216137,161,177,1984
216195,151,173,1979
216217,155,171,1999
216256,152,167,2000
216296,162,167,1993
216336,156,167,2000
216376,168,170,1992
216417,166,166,1979
216456,163,168,2008
216507,151,167,1982
216536,158,171,1983
216576,164,170,1997
216617,161,172,1995
216656,151,169,1988
216697,165,162,1979
216740,163,171,1991
216774,172,160,1976
216828,158,171,1981
216856,163,164,1991
216907,163,166,1997
216936,153,162,1982
216976,157,169,1990
217017,161,173,1988
217056,164,171,1982
217097,150,167,1996
217136,161,169,1984
217177,154,167,1975
217217,169,168,1978
217257,155,172,1987
217309,160,170,1986
217361,156,175,1977
217400,154,171,1993
217440,161,177,1987
217471,161,172,1990
217497,157,173,1980
217537,165,160,1995
217577,158,170,1989
217617,161,171,1986
217657,156,174,1986
217711,166,180,1994
217737,165,169,1987
217777,166,169,1981
217817,155,168,1982
217857,165,171,1981
217897,164,168,1990
217936,161,177,1986
217995,153,170,1992
218016,154,171,1986
218079,163,169,1984
218096,166,166,1994
218137,168,164,1993
218186,164,171,1993
218216,157,174,1977
218256,157,166,1985
218296,161,159,1995
218336,159,169,1988
218376,163,160,1997
218416,165,169,1990
218456,157,175,1992
218510,69,236,1921
218536,170,175,1987
218576,174,166,1981
218619,153,175,1982
218661,150,166,1987
218698,150,177,1986
218737,139,178,1986
218777,150,178,1991
218816,144,168,1982
218857,140,173,1996
218908,131,172,2005
218937,133,173,1986
218977,139,176,1987
219017,129,177,1996
219056,139,174,1982
219096,129,175,1988
219137,121,179,1979
219177,131,177,1977
219239,134,183,1977
219305,129,178,1987
219319,126,186,1998
219359,130,176,1979
219397,135,175,1977
219417,131,176,1979
219457,128,179,1983
219497,125,181,1994
219537,127,179,1986
219576,131,184,1985
219616,123,188,1995
219657,120,182,1995
219710,125,192,1996
219737,126,183,1980
219777,123,184,1984
219817,135,181,1978
219857,135,173,1972
219915,116,180,1979
219938,163,83,1760
219978,110,186,1985
220016,132,177,1970
220056,113,192,1978
220105,118,190,1980
220137,115,190,1993
220176,125,189,1989
220216,127,182,1992
220276,111,185,1989
220297,119,178,1988
220336,119,190,1984
220378,125,194,1969
220416,124,190,1988
220457,108,186,1994
220496,109,183,1988
220538,107,198,1983
220579,123,164,1978
220638,158,183,1918
220657,119,186,1989
220698,114,190,1981
220736,110,183,1983
220777,120,184,1993
220816,123,188,1985
220857,120,185,1984
220909,123,191,1991
220937,116,190,1985
220976,121,185,1996
221017,137,180,1995
221056,126,200,1984
221097,133,193,1977
221137,106,180,1999
221176,121,188,2002
221226,108,187,1980
221257,114,180,1988
221315,121,186,1980
221358,104,187,2002
221386,130,199,2005
221416,146,198,2002
221456,67,200,1991
221497,99,184,1988
221536,71,199,2062
221577,-61,160,1981
221617,-136,165,1974
221657,-98,159,1951
221710,-79,172,1976
221737,-4,165,2015
221777,51,195,2058
221817,-36,175,1999
221857,-50,176,1998
221897,-138,179,1962
221939,-51,180,2007
221971,-372,-7,1359
222016,293,149,1534
222056,-67,153,2129
222110,108,171,1977
222136,109,187,1978
222176,119,187,1980
222216,122,192,1991
222256,109,176,1985
222296,106,185,1980
222336,123,188,1990
222376,123,192,1995
222416,117,179,1976
222456,120,186,1981
222509,110,192,1975
222538,124,184,2001
222579,130,191,1984
222616,109,196,1975
222656,121,176,1991
222696,111,195,1983
222736,105,203,1993
222776,43,241,1982
222816,96,180,1974
222856,115,191,1996
222909,121,192,1997
222937,113,187,1992
222977,132,181,1987
223017,121,188,1980
223057,129,191,1993
223108,123,179,1951
223140,146,174,1979
223177,104,191,1999
223217,130,186,2003
223257,125,187,1991
223309,127,185,1991
223337,119,110,1983
223377,150,177,1994
223417,146,183,1965
223457,110,188,1979
223497,136,173,1973
223537,150,161,1983
223577,122,118,2010
223617,122,189,1948
223670,139,167,1998
223703,132,156,2012
223738,159,178,1995
223777,137,187,1965
223817,135,192,1968
223857,149,188,1948
223897,-115,81,2150
223937,154,216,1988
223977,116,167,1970
224017,129,191,1992
224057,123,182,1979
224112,108,156,1984
224137,115,164,1998
224177,120,171,1992
224217,140,204,1982
224278,120,210,1989
224308,119,175,1980
224360,114,174,1992
224377,115,178,1984
224417,121,193,1999
224457,114,176,1974
224511,117,178,1993
224537,117,170,1982
224577,126,171,1985
224616,105,178,1991
224698,123,205,1976
224707,121,185,1986
224747,149,168,1993
224778,106,191,1987
224817,116,212,1981
224857,115,175,1996
